rosbagTimestamp,x,y,z,roll,pitch,yaw,front,back,up,left,right,zrange,deltaX,deltaY,outlierCount,accX,accY,accZ,gyroX,gyroY,gyroZ,ref_x,ref_y,ref_z,ref_roll,ref_pitch,ref_yaw
1555426869139051461,-0.000699548865668,-0.000157999515068,0.0640356466174,0.00394533453534,-0.0176031431849,-0.000315953992244,0.911,0.862,3.641,1.1,0.868,0.059,1.0,3.0,0.0,-0.198777722362,0.0061203028931,9.80138939023,-0.000595561492225,3.54879787882e-05,0.00160129608555,-0.0809713453054,0.155146300793,-0.0465802960098,0.00969821873388,0.00644334757495,0.038161674324
1555426869157567040,-0.000668859516736,0.000106672981929,0.0652462244034,0.00142143336358,-0.0181933704227,-0.000356827338212,0.912,0.864,3.618,1.098,0.868,0.06,0.0,2.0,0.0,-0.211529037897,0.000596357110408,9.8068465966,-0.000996095523631,-0.000678832999929,0.00108862639252,-0.0809716433287,0.155157610774,-0.046597506851,0.00994455859115,0.00625526950847,0.0383720731975
1555426869177562818,-0.000225538984523,0.000136396920425,0.0636985898018,0.00102483659738,-0.0210650383008,-0.00037509284571,0.912,0.864,3.618,1.098,0.868,0.06,0.0,0.0,0.0,-0.204021852538,-0.0019208972792,9.82127810955,0.000317580952204,-8.80354516648e-05,0.000217767254499,-0.0809773355722,0.155150532722,-0.0465783700347,0.00983961133616,0.00639121127353,0.0381012844463
1555426869197735654,-0.000615013763309,-6.96825736668e-05,0.0622232072055,0.00173310838546,-0.018185480808,-0.000344735865156,0.912,0.864,3.618,1.098,0.868,0.06,0.0,2.0,0.0,-0.201339168269,0.00247700160602,9.77721583128,-0.00138708729801,-0.00182162286152,0.000798670827719,-0.080925039947,0.155165821314,-0.0466821193695,0.0120174404097,0.007309830176,0.0383867076715
1555426869217610018,-0.000247875694185,0.00011943973368,0.0626869723201,0.000547253856653,-0.0210277165948,-0.000368430424193,0.912,0.864,3.618,1.098,0.868,0.06,1.0,0.0,0.0,-0.205671571344,0.00223791315497,9.82098691821,-0.00158158440226,-6.20216838965e-05,0.000447002551387,-0.0809690058231,0.155154004693,-0.0465766601264,0.0102267746467,0.00692362281265,0.0382309176424
1555426869237699461,-0.000254246930126,0.00012260308722,0.0616749450564,0.000497002880705,-0.020688583836,-0.000357055455904,0.911,0.864,3.773,1.098,0.868,0.06,0.0,0.0,0.0,-0.211246215384,-0.00049480863323,9.79061121762,-0.00018453035716,0.000517660519337,-0.000553222562416,-0.0809788182378,0.155130460858,-0.0465760417283,0.0101882911609,0.00662700847538,0.0382929414746
1555426869257546999,-0.000987368286587,-6.27246772638e-05,0.0614844113588,0.00174583863357,-0.0155322077437,-0.000354511376346,0.911,0.864,3.773,1.101,0.866,0.059,1.0,4.0,0.0,-0.21265484618,-0.00180665130771,9.80628350973,0.000717579067953,0.000125045905553,0.000578085212776,-0.0808955654502,0.15516769886,-0.0466742105782,0.0121744000333,0.00740833977212,0.0383109062246
1555426869277823112,-0.000281496060779,0.000151767308125,0.0628234148026,0.00118701198959,-0.0217873312809,-0.000329357020121,0.911,0.864,3.773,1.101,0.866,0.058,3.0,-1.0,0.0,-0.213639060482,-0.00528136163601,9.80409782052,0.000205479295291,0.00117831523419,-0.00143761401776,-0.0809081345797,0.155157268047,-0.0466491989791,0.0121939018451,0.00704023663351,0.0383480090241
1555426869297875816,-0.000278814666672,0.000535089056939,0.0614242553711,-0.00099251625073,-0.0211510771294,-0.000391397912945,0.911,0.864,3.773,1.101,0.866,0.058,0.0,0.0,0.0,-0.201339953989,-0.00287128695199,9.81104197383,0.00121314854901,-0.000913007953494,-0.000473780486605,-0.0809604749084,0.155127078295,-0.0465890094638,0.0104191697185,0.00679036248816,0.0380426633892
1555426869317870295,-0.000267078517936,0.000192528939806,0.0612843371928,0.00215394063278,-0.0207803006072,-0.00031457013676,0.911,0.864,3.773,1.101,0.866,0.058,2.0,0.0,0.0,-0.210564941671,0.00289943467156,9.79799858987,0.00196621157273,-0.00128284521724,0.00120543227382,-0.0809109956026,0.155161902308,-0.0466644205153,0.0120053004772,0.00740227008541,0.0384272210486
1555426869337937958,-0.000259108986938,0.000532986363396,0.0612652488053,-0.00110452252538,-0.020568381644,-0.000380693806377,0.918,0.863,3.273,1.101,0.866,0.061,-2.0,0.0,0.0,-0.206592562627,0.000607294444344,9.81446259499,0.0015029270032,0.000662769834325,-0.00118080492571,-0.080904789269,0.155158728361,-0.0466706007719,0.0116247019845,0.00684867728116,0.038260258236
1555426869357661163,-0.00100653839763,0.000175403009052,0.0611980706453,0.0017513264619,-0.0155429165642,-0.000356053519566,0.918,0.863,3.273,1.102,0.868,0.062,1.0,4.0,0.0,-0.200441529304,0.0141892303736,9.8237035346,0.00204217733257,-2.47334604701e-05,-0.000537406760006,-0.0809049457312,0.155170157552,-0.0466620437801,0.0120018853015,0.00722340426912,0.0381739195643
1555426869377822057,-0.000785434502177,0.00108534260653,0.0644167587161,-0.00494121660297,-0.0173569391436,-0.000440238798411,0.918,0.863,3.273,1.102,0.868,0.061,-5.0,4.0,0.0,-0.20618747849,-0.0010717271777,9.81298909664,-0.000920474037184,-0.000622013521804,0.000581218783302,-0.0809672549367,0.155132621527,-0.0465831570327,0.00981154976906,0.00651726295382,0.0382253087154
1555426869397820358,-0.000241768400883,0.000199434012757,0.0651865303516,0.00238344075035,-0.0217283589075,-0.000290786372229,0.918,0.863,3.273,1.102,0.868,0.061,-1.0,0.0,0.0,-0.22163808804,-0.00206491180244,9.80921296477,0.00236376092616,0.000116465444015,-6.73898861704e-05,-0.0809741169214,0.155148774385,-0.0466032661498,0.00980702662976,0.00608835432408,0.0382945124696
1555426869417740800,-0.000201884904527,0.000349026406184,0.0657079741359,0.000302550509237,-0.0211125465979,-0.000337160615268,0.918,0.863,3.273,1.102,0.868,0.057,-1.0,0.0,0.0,-0.206367225554,-0.00389144307235,9.80130752921,0.00160224366636,0.000269801348785,0.000866007061369,-0.0809252262115,0.15518078208,-0.0466782152653,0.0119703675289,0.00743281279137,0.0384609657651
1555426869437600724,-0.00024202374334,0.000351190217771,0.0629834905267,0.000395277214089,-0.0207566692137,-0.000340963259504,0.918,0.863,3.273,1.102,0.868,0.057,0.0,0.0,0.0,-0.197071139384,-0.0125711048045,9.81735813618,0.00104433957103,-0.00269525530211,0.000307781644214,-0.0809727534652,0.155142918229,-0.0465917438269,0.00996405492822,0.00628005154863,0.0382769648584
1555426869457878209,-0.000237496089539,0.000164680473972,0.0629585310817,0.0016160731186,-0.0204995202045,-0.000312131192247,0.912,0.864,3.579,1.105,0.865,0.058,-1.0,0.0,0.0,-0.21191316342,0.00797362014942,9.80341252685,-0.000405139134973,0.00110848345736,0.000580888033779,-0.0809747800231,0.155161142349,-0.0465867631137,0.0099447313866,0.00627099502265,0.0384345173723
1555426869477686768,-6.49903304293e-05,0.000327836256474,0.0611880384386,-0.00016897184953,-0.0212781223969,-0.000342464245963,0.912,0.864,3.579,1.105,0.865,0.06,-1.0,0.0,0.0,-0.21027797129,0.00637025480275,9.8228954494,-0.000824104861371,-0.00251033101362,0.000821071484479,-0.0809560716152,0.155135259032,-0.0466076768935,0.00999811736559,0.00653547063744,0.0380676456333
1555426869497758163,-0.000273724668659,0.00035131315235,0.0613123178482,0.000420710077406,-0.0205100168043,-0.000318385492129,0.912,0.864,3.579,1.105,0.865,0.06,1.0,-2.0,0.0,-0.193743817862,0.00236496861151,9.82855087638,0.000926264787091,0.000229907052615,0.000432882108484,-0.0809655487537,0.155147656798,-0.0466081649065,0.0101121128861,0.00667975766949,0.0385583631261
1555426869517703679,-6.60424702801e-05,0.000134881440317,0.0613741725683,0.0010009714621,-0.0212494975764,-0.000307623323968,0.912,0.864,3.579,1.105,0.865,0.058,0.0,-1.0,0.0,-0.202198928241,-0.00258856465342,9.81068997145,0.00021360383841,-0.000642691576271,-0.000958990264524,-0.0808980688453,0.155162140727,-0.0466833785176,0.0122430784033,0.00742450111097,0.0383264862424
1555426869537663628,-8.27166513773e-05,0.000123125922983,0.0601982958615,0.000706622071614,-0.0210535867081,-0.000301889660376,0.913,0.862,3.795,1.105,0.865,0.058,0.0,-1.0,0.0,-0.217231863867,0.00782511857338,9.80216297686,0.000193208240915,-0.000699933935248,-0.000742156221722,-0.0809754505754,0.155149877071,-0.0465877763927,0.00995827334055,0.00641498602562,0.0384969721596
1555426869557886093,-0.000297358521493,0.00109750404954,0.0597919262946,-0.00421197547718,-0.0194169826721,-0.000389861198776,0.913,0.862,3.795,1.105,0.865,0.058,-4.0,1.0,0.0,-0.204588191919,-0.0017574373378,9.80860953212,-0.00027752827077,-0.000630478550978,-0.00127277409907,-0.0808823257685,0.155155107379,-0.0466884337366,0.0117451086066,0.00730351138493,0.0385720604739
1555426869577825663,-0.000234358740272,0.000198376845219,0.0608461759984,0.00214743136253,-0.0194330552654,-0.000295760423736,0.913,0.862,3.795,1.099,0.868,0.06,2.0,1.0,0.0,-0.223322616052,0.00650289694837,9.81990635276,0.00150130296907,0.00091653885257,-0.00130745735101,-0.0808921381831,0.155165687203,-0.0466662943363,0.0122818236868,0.00720587982531,0.0382071969704
1555426869597724416,-0.000256265833741,0.000519885565154,0.0607143640518,-0.00099572478768,-0.019775206967,-0.000349104821236,0.913,0.862,3.795,1.099,0.868,0.06,-2.0,0.0,0.0,-0.216351328008,0.00629018392239,9.79918908298,0.00147297866443,0.000210985653923,0.000800414365995,-0.0809718295932,0.155150547624,-0.0465732589364,0.00986652755124,0.00616263290685,0.0381448731533
1555426869617715910,-0.000246740382863,0.000160659881658,0.0609437562525,0.00155376555206,-0.019689719496,-0.000304328182268,0.913,0.862,3.795,1.099,0.868,0.062,-3.0,0.0,0.0,-0.209139226042,0.000814335985197,9.79567666054,0.000951055266825,-0.000142866872883,-0.00135519815459,-0.080896794796,0.155159845948,-0.0466925241053,0.0122374038281,0.00763127495961,0.0382745228479
1555426869637637447,-0.000252954778261,0.00067072204547,0.06133640185,-0.0025576281304,-0.0199799562012,-0.000341588055561,0.91,0.863,3.672,1.099,0.868,0.062,2.0,0.0,0.0,-0.217206117846,-0.000757346474711,9.80155954421,0.000936843765398,0.00185060281354,-0.001590404823,-0.0808769762516,0.155161291361,-0.0466515868902,0.0117168767701,0.00750842955074,0.0380780864834
1555426869657945257,-0.000262719549937,-1.97459053197e-06,0.061267927289,0.0031522097926,-0.020162330721,-0.000274227830055,0.91,0.863,3.672,1.103,0.869,0.06,2.0,0.0,0.0,-0.212413666807,-0.00465500835213,9.79770038188,-0.000931355416914,0.00178752594715,-0.00128207318661,-0.0809775963426,0.155147090554,-0.0465818829834,0.00990337593671,0.00681580618815,0.0381918141584
1555426869677897571,-0.000234112390899,5.2655991567e-06,0.0629697293043,0.00325490248058,-0.0202878072202,-0.00027152364224,0.91,0.863,3.672,1.103,0.869,0.06,1.0,-7.0,0.0,-0.202086880971,-0.000670416036664,9.78904942632,-0.00110810699977,0.00162565984834,-0.00155976325611,-0.0809900611639,0.155156984925,-0.0465765483677,0.00973377366163,0.00673662978172,0.0383733775472
1555426869697820642,-0.000298754428513,-4.48248392786e-05,0.0662798807025,0.00239063674685,-0.0224384221526,-0.000324376661812,0.91,0.863,3.672,1.103,0.869,0.06,1.0,-7.0,0.0,-0.20082201859,0.00697885630536,9.8268785727,-0.00172996785795,-7.46370797276e-06,0.00075554731869,-0.0809089168906,0.155161768198,-0.0466891750693,0.0121040106775,0.00730200292685,0.0381104960029
1555426869717803860,-0.000234760271269,0.000303569424432,0.0672201961279,-0.000229917455588,-0.0215058996521,-0.000325254120076,0.91,0.863,3.672,1.103,0.869,0.06,0.0,0.0,0.0,-0.210564959943,-0.00221144865121,9.80449016869,-0.000627473977318,0.000106095979958,0.00124578514605,-0.080976434052,0.15514819324,-0.04659095034,0.0101887421402,0.00693509634992,0.0382024073645
1555426869737645269,-0.000974931230303,0.000136870250572,0.0654648244381,0.00136592088898,-0.0161422058317,-0.000326405046493,0.913,0.863,3.822,1.103,0.869,0.06,4.0,-3.0,0.0,-0.20041784808,-0.00576884925831,9.81376677632,-0.000768113134805,0.000315011255324,0.00170955033293,-0.0809801891446,0.155149459839,-0.0465934537351,0.0100515910212,0.00675204745777,0.0383041822753
1555426869757565169,-0.000512635859195,0.000174717220943,0.0654784440994,0.0022112489206,-0.0216474799536,-0.000274602759704,0.913,0.863,3.822,1.1,0.87,0.059,-4.0,1.0,0.0,-0.210740869772,-0.00377902721084,9.80973862946,6.37800057726e-05,0.00153369353579,0.000736337188733,-0.0808843821287,0.155149415135,-0.046678699553,0.0120339537179,0.00729441157333,0.038339740692
1555426869777916506,-0.000254278216744,0.000876381760463,0.0664239525795,-0.00332932769015,-0.0216855798019,-0.000371794908211,0.913,0.863,3.822,1.1,0.87,0.059,-2.0,-2.0,0.0,-0.208158337343,0.00457545167272,9.82878008723,-0.000213142271501,-0.000265027196907,4.06814842614e-05,-0.0809820592403,0.155159950256,-0.0466017015278,0.00991212858052,0.00643293591415,0.0380439291952
1555426869797794509,-0.000442990480224,0.000126613012981,0.0672364830971,0.0012432197729,-0.0208249480867,-0.000291693869078,0.913,0.863,3.822,1.1,0.87,0.059,-2.0,-2.0,0.0,-0.228105748091,-0.00472434525203,9.82923500061,-0.00166043152554,-0.00132796785259,-0.00104659376524,-0.0809374377131,0.155173555017,-0.046673964709,0.0122501626306,0.00762377447504,0.038405245675
1555426869817750963,-0.000240546040004,7.7320379205e-05,0.0683040544391,0.000205620483141,-0.0221232474405,-0.000327059588551,0.913,0.863,3.822,1.1,0.87,0.059,-2.0,-2.0,0.0,-0.219763415884,-0.000902193897855,9.81336799622,0.000639102615602,0.000834579224781,0.000211322905304,-0.0809022113681,0.155162602663,-0.0466925613582,0.0121022797662,0.00727662052478,0.03829051632
1555426869838343360,-0.000256103841821,0.00046487923828,0.0653329566121,-0.00207471276069,-0.021361633303,-0.000374034245678,0.913,0.863,3.822,1.1,0.87,0.059,-2.0,0.0,0.0,-0.200139995702,0.0014717898611,9.80974096835,0.000450082319037,-1.56360402562e-05,0.00121576788758,-0.0808961838484,0.155178904533,-0.0466800145805,0.0118484654012,0.00719167167332,0.0379758720505
1555426869858212371,-0.000647839508019,-6.20067003183e-05,0.0636349245906,0.00222909470065,-0.0185853149144,-0.00029464746817,0.912,0.863,3.692,1.103,0.869,0.059,2.0,2.0,0.0,-0.209664872456,0.00111746679373,9.79345588803,-0.000641073003708,0.000481494291091,-0.000491341712831,-0.0809988081455,0.15514613688,-0.0465872846544,0.00984417388002,0.00624721487717,0.0380992016102
1555426869879284480,-6.70554363751e-05,-0.000103167600173,0.0642214268446,0.00135894582561,-0.0219836374622,-0.000313725057749,0.912,0.863,3.692,1.103,0.869,0.059,0.0,0.0,0.0,-0.213082716186,0.00402052835212,9.82230137229,-0.000306081343294,-0.00215733395254,0.000542139950178,-0.0809146463871,0.155179858208,-0.046692404896,0.0122880557488,0.00741325263488,0.0384267694097
1555426869898009695,-0.000274595542578,-0.00012132775737,0.0625007152557,0.000881871010039,-0.020381922917,-0.000311147851224,0.912,0.863,3.692,1.103,0.869,0.059,2.0,4.0,0.0,-0.221636790689,-0.00414980492264,9.82068871021,-0.00235816048564,-0.000258321716835,-0.000614726369249,-0.0809115171432,0.155164137483,-0.0466918647289,0.01197505499,0.00722823276366,0.0384299732585
1555426869917829619,-0.0010310378857,-0.000102348887594,0.0626376643777,0.00119101700416,-0.0158611227025,-0.000330444683459,0.912,0.863,3.692,1.103,0.869,0.06,4.0,0.0,0.0,-0.205514007155,0.00424609183363,9.80821718395,-0.00062511822408,-0.000383834463929,-0.000499536589799,-0.0809961259365,0.155147328973,-0.0465967580676,0.0099680276995,0.00665566813228,0.038464616014
1555426869937539706,-0.000492104212753,-6.6669905209e-05,0.0645117461681,0.00199371430258,-0.0203738980636,-0.000308725551468,0.912,0.861,3.714,1.103,0.869,0.06,-1.0,0.0,0.0,-0.205880189035,-0.0109809419455,9.82162426472,0.000380302459537,-0.000753407102049,8.5009283708e-05,-0.0809781104326,0.155157715082,-0.0466073490679,0.0100445354804,0.00649671439942,0.0383514946962
1555426869957642328,-0.000229556681006,9.0907291451e-05,0.0648876279593,6.72362635174e-05,-0.0210985650022,-0.000315741576539,0.912,0.861,3.714,1.103,0.866,0.058,2.0,-5.0,0.0,-0.208261230066,-0.00135847222075,9.81393868446,-0.000610943003022,0.00103905173985,0.000518270166064,-0.0809065774083,0.155154585838,-0.0466749742627,0.0119445286772,0.00729157151834,0.0385047395027
1555426869977677423,-0.000232677091844,9.14842021302e-05,0.0654451623559,0.000771655802244,-0.022257714189,-0.000284574952102,0.912,0.861,3.714,1.103,0.866,0.061,0.0,0.0,0.0,-0.213636703324,-0.00844312244444,9.81289904952,0.00199430857242,0.000274529646309,-3.87885048398e-05,-0.0809798315167,0.155132398009,-0.0466093234718,0.0103442122622,0.00669795631439,0.0383650506008
1555426869997941573,-0.000319599406794,0.000106530882476,0.0640934258699,0.000557014836189,-0.0213226179931,-0.000309468453778,0.912,0.861,3.714,1.103,0.866,0.061,0.0,0.0,0.0,-0.220621732324,-0.00271742723649,9.80380312085,0.000382194922873,-9.02633458624e-05,0.00114517656368,-0.0809836313128,0.155169337988,-0.0465944595635,0.00972272827765,0.00673501517431,0.0385374905055
1555426870018306060,-0.000295834906865,-0.000101090845419,0.0641226023436,0.00128068595015,-0.020777381533,-0.000280952051733,0.912,0.861,3.714,1.103,0.866,0.062,-3.0,7.0,0.0,-0.197794275507,0.00449789840699,9.81962334752,-0.00147845895061,-2.46417334747e-05,-0.000628304004527,-0.080960907042,0.155147746205,-0.0466193407774,0.0100370064293,0.00668546193003,0.0384054853995
1555426870038436754,-0.00157233700156,0.000619507976808,0.0632514879107,-0.00374346718478,-0.012074294886,-0.000353671953952,0.91,0.863,3.665,1.103,0.866,0.062,0.0,-1.0,0.0,-0.205754802804,0.0129492335056,9.81120452642,0.0010757785258,0.000446878430915,-0.00264179676449,-0.0809742584825,0.15514062345,-0.0465991832316,0.00994891135949,0.00669993858148,0.0384998353005
1555426870058697729,-0.000140094445669,-8.58044368215e-05,0.0668192431331,-0.000260052543978,-0.0217923330303,-0.000353511585621,0.91,0.863,3.665,1.099,0.867,0.06,-1.0,0.0,0.0,-0.202177512813,-0.0021543233814,9.8351781106,-0.000417242311373,-0.000508808629604,-0.00232481817693,-0.0809651687741,0.155172675848,-0.0465956926346,0.00994119026325,0.00663241070854,0.0386831211202
1555426870077954079,-5.91085445194e-05,6.06526045885e-05,0.0674341693521,-0.000260052543978,-0.0217923330303,-0.000353511585621,0.91,0.863,3.665,1.099,0.867,0.06,-1.0,0.0,0.0,-0.210755104087,-0.00929275713977,9.81217165589,0.00119606660726,-0.00259560236284,0.000761377339819,-0.0809538513422,0.15515512228,-0.0465817861259,0.0103121536356,0.00717178500705,0.0381234423555
1555426870097718228,-0.00027485541068,0.000233777871472,0.0647535175085,-0.00163017421847,-0.0200627409798,-0.000394369489675,0.91,0.863,3.665,1.099,0.867,0.058,1.0,-1.0,0.0,-0.192385308668,-3.46740865166e-05,9.81772066355,-0.000295238031944,0.00028896458409,0.000973515480605,-0.0809654220939,0.155156448483,-0.0466011576355,0.0100650075826,0.00691721617668,0.038350471047
1555426870117988092,-8.80540465005e-05,-0.000105421771877,0.0649877265096,0.00129960518698,-0.0212881321375,-0.000332862659479,0.91,0.863,3.665,1.099,0.867,0.06,0.0,0.0,0.0,-0.213877498973,0.0006749120116,9.81000935555,0.000306966213677,9.41961247895e-05,0.000861874415323,-0.0808977633715,0.15516717732,-0.0466848649085,0.0122284561911,0.00748019691482,0.0382517368352
1555426870137672646,-0.000294756551739,-0.000130380867631,0.0632820427418,0.000773645890981,-0.0198358667026,-0.000334893157263,0.912,0.866,3.327,1.099,0.867,0.06,3.0,-3.0,0.0,-0.204071279783,0.00115442859133,9.79903471649,-0.000169686501267,0.000222041380978,0.000548317365587,-0.0809115767479,0.155177935958,-0.0466820038855,0.012164658652,0.00730630729114,0.0384822817253
1555426870157735104,-0.000340629048878,9.9615448562e-05,0.0635212063789,0.000489626002507,-0.0209308690773,-0.000318176229825,0.912,0.866,3.327,1.099,0.867,0.059,1.0,-1.0,0.0,-0.219157808796,0.00558725438314,9.81998119712,-0.00176205465786,-0.000673812460136,-0.00123302056813,-0.0809710100293,0.155133679509,-0.0465861074626,0.0103201285082,0.00675690908063,0.0382640991209
1555426870177751263,-0.00014032467152,0.00030658999458,0.0636589825153,-0.000278359175729,-0.0218428165777,-0.000311613611831,0.912,0.866,3.327,1.099,0.867,0.06,0.0,0.0,0.0,-0.215770699494,0.00709116395912,9.79569946468,-0.000939553544811,0.00182596532253,-0.000815149917187,-0.0809640586376,0.155165329576,-0.0466138273478,0.0102273180689,0.00671893207876,0.0382394369413
1555426870197673393,-0.000129673629999,-8.50317956065e-05,0.0623978227377,0.00010454572567,-0.0207615378051,-0.00035405058966,0.912,0.866,3.327,1.099,0.867,0.06,0.0,0.0,0.0,-0.214963820279,0.00431302103971,9.81593024611,0.000791946736078,0.000399739276777,-0.00175663366862,-0.0809054523706,0.15517988801,-0.0466874055564,0.0118333569711,0.00723284739743,0.0383936465712
1555426870217803369,-0.000127426654217,7.95683008619e-05,0.0615834742785,0.00010454572567,-0.0207615378051,-0.00035405058966,0.912,0.866,3.327,1.099,0.867,0.06,1.0,0.0,0.0,-0.207479877602,0.00134324305051,9.82066064358,0.000422687845122,-0.00154356556707,4.83116464057e-05,-0.080971814692,0.155163899064,-0.0466106049716,0.00982215622937,0.00676156146757,0.038309664083
1555426870237611647,-0.000320160877891,0.000296040641842,0.0615370683372,-0.000417720750603,-0.0196602853242,-0.000368380132321,0.911,0.866,3.624,1.099,0.867,0.06,1.0,0.0,0.0,-0.217169974744,0.00449954464944,9.80563388407,0.00116325016883,0.000363588945574,0.000412692863711,-0.0809198990464,0.155161812901,-0.0466750860214,0.0120278643748,0.00781990107459,0.0385196070852
1555426870258000513,-0.000387078180211,-8.786906983e-05,0.0630377009511,0.000923878735194,-0.0209825739338,-0.00036325549778,0.911,0.866,3.624,1.101,0.869,0.06,0.0,0.0,0.0,-0.210849006716,0.00427349009318,9.80523802757,-0.0014382279232,-0.00247086863588,0.000774909722164,-0.0808918327093,0.155171751976,-0.0466855950654,0.0122913265714,0.00746492797908,0.0382395097939
1555426870277879317,-0.000364883744624,-0.000117539173516,0.0630879402161,0.000923878735194,-0.0209825739338,-0.00036325549778,0.911,0.866,3.624,1.101,0.869,0.064,-4.0,0.0,0.0,-0.213864105195,-0.000620622769857,9.8090077275,-0.000601359849305,0.00195281917539,-0.000789688510712,-0.0809708461165,0.155161008239,-0.0466004163027,0.00980396821682,0.00669680136286,0.0385685534573
1555426870297923232,-0.000145153171616,0.000607496709563,0.0633591040969,0.00207692586316,-0.0185319185345,-0.000354842158378,0.911,0.866,3.624,1.101,0.869,0.064,0.0,0.0,0.0,-0.194631388653,-0.00250171037478,9.80656768441,0.000538111919029,-0.00128683007605,0.00182008010063,-0.0809746235609,0.15515974164,-0.0466013476253,0.00999256690719,0.00612891664571,0.0381405183787
1555426870317848940,-0.000710349297151,-0.00030051995418,0.0641589388251,0.00189980887587,-0.0205590980309,-0.000332376873148,0.911,0.866,3.624,1.101,0.869,0.06,5.0,-1.0,0.0,-0.210836161114,0.000770579226228,9.77912085414,0.00138736739806,0.000857025524585,0.000559481576145,-0.0808981135488,0.155162125826,-0.0466832220554,0.0121600381923,0.00750021970596,0.0385717212158
1555426870337736069,-0.00050171156181,-6.97595096426e-05,0.0679377168417,0.00189980887587,-0.0205590980309,-0.000332376873148,0.911,0.866,3.624,1.101,0.869,0.06,5.0,-1.0,0.0,-0.190101185236,0.0141268867208,9.84001141906,-0.00254985945023,-0.000445354005258,0.000554765843462,-0.0811251327395,0.15507376194,-0.0465177223086,0.0135624056477,-0.000366662621427,0.0356797320001
1555426870357728446,-0.000725477701053,0.000279769359622,0.065872579813,-0.000942031598,-0.0191609238945,-0.000358786413085,0.91,0.864,3.66,1.103,0.868,0.06,3.0,2.0,0.0,-0.23508933356,0.0317118738801,9.74892524779,0.0057779318832,-0.000951083614926,-0.0161402563146,-0.0811642035842,0.155103445053,-0.0465455390513,0.0135800042784,-0.00103334875746,0.0361607966856
1555426870377753709,-0.00071455759462,-0.000421411881689,0.0668645724654,-0.000389565689324,-0.0204516894152,-0.000328659143179,0.91,0.864,3.66,1.103,0.868,0.06,-1.0,0.0,0.0,-0.185654176734,0.0883205296285,10.1239335001,0.00250739191367,-0.00809470674147,0.0141958647177,-0.0809594467282,0.155137494206,-0.0466907247901,0.0118223975775,0.00621860165844,0.0381616079464
1555426870397851024,-0.000329175993102,6.01972024015e-05,0.0651477426291,0.00131385582959,-0.0206354079991,-0.000259849052073,0.91,0.864,3.66,1.103,0.868,0.06,5.0,-4.0,0.0,-0.224756097514,-0.0270811143424,9.73090120554,-0.000713688356048,0.002781715191,0.00159299425302,-0.0811888352036,0.155090019107,-0.0465122014284,0.0131145642867,-0.00171806940281,0.036127236895
1555426870417753884,-0.000324639608152,0.000158280789037,0.0669032260776,-4.07044967755e-05,-0.0189806882259,-0.000476573424783,0.91,0.864,3.66,1.103,0.868,0.06,1.0,0.0,0.0,-0.267491277102,-0.0833886681776,9.52052832663,0.0118825285621,0.00846840337817,-0.0122362618936,-0.0810465663671,0.155160784721,-0.0466001406312,0.00939462297724,0.00380851358799,0.037593814799
1555426870437620205,-0.000269226642558,0.000380517391022,0.0678881779313,0.000901059358771,-0.0178408802465,0.000371161464682,0.915,0.862,3.736,1.103,0.868,0.06,0.0,0.0,0.0,-0.296051289327,0.11546464772,9.8690978086,-0.0125444021153,0.00794724980057,0.0886251491312,-0.0810579359531,0.155131623149,-0.0465404093266,0.0099175034614,0.00291027164795,0.0393925342941
1555426870457635291,-0.000298946484691,0.000163503442309,0.0642989203334,0.000901059358771,-0.0178408802465,0.000371161464682,0.915,0.862,3.736,1.103,0.866,0.057,0.0,0.0,0.0,0.0645489713224,0.0433778205654,9.67500942528,-0.0525649867368,0.000655255766922,-0.0815365050668,-0.0810608938336,0.155150100589,-0.0466097965837,0.0103722788786,0.00430195823627,0.037960723476
1555426870477770862,-0.000265632756054,0.000104804254079,0.0641751438379,0.000466686894367,-0.0164596431904,-0.000126607213,0.915,0.862,3.736,1.103,0.866,0.061,0.0,0.0,0.0,-0.250008723568,-0.0347376069822,9.79994805157,0.0998115242635,-0.0435429376553,0.0299145478332,-0.0812492221594,0.155081227422,-0.0465174093843,0.0123384521313,-0.00317979032519,0.0368212351529
1555426870497804539,-0.000362239748938,-3.66622552974e-05,0.0632763132453,-0.00561321120859,-0.0103956368316,-0.000370920278255,0.915,0.862,3.736,1.103,0.866,0.061,-5.0,0.0,0.0,-0.216311749667,-0.805256320238,9.4184347719,-0.00232774713398,-0.0508841492596,-0.030733374161,-0.0811398476362,0.155083358288,-0.0466145128012,0.0102602502294,0.000100696508074,0.0386555834512
1555426870517727656,-0.000649828230962,0.000801749120001,0.0631747916341,-0.00100146287254,-0.00653405949273,-0.00266265420522,0.915,0.862,3.736,1.103,0.866,0.062,-1.0,-1.0,0.0,-0.980068699345,0.20757341478,10.4505917108,-0.0230533273229,-0.317608425155,-0.147197124572,-0.0812437906861,0.155083030462,-0.0466281808913,0.00950941705617,-0.00483195983884,0.0351951988296
1555426870537699680,-0.000279869040241,0.00028207336436,0.0658230483532,-0.00194344063515,0.00244331168053,-0.00553124462381,0.908,0.865,3.786,1.103,0.866,0.062,-2.0,-8.0,0.0,0.332778125927,-0.342698402368,10.678072958,0.0470538994337,-0.559455110462,-0.152059973499,-0.0818051993847,0.154980286956,-0.0467328503728,0.0118762578805,-0.0224685126374,0.031751984293
1555426870557647339,-0.000372223905288,0.00042221476906,0.0677783489227,0.00153612471059,0.0130974075157,-0.00825758400927,0.908,0.865,3.786,1.1,0.864,0.062,0.0,0.0,0.0,0.205598627329,-0.268955712263,9.54926271379,0.180355760475,-0.462022230138,-0.111040909447,-0.081875897944,0.154991105199,-0.0471134856343,0.00940672616668,-0.0216681129924,0.0310156874172
1555426870577636827,-0.000209436751902,0.000508167024236,0.0693156793714,0.00153612471059,0.0130974075157,-0.00825758400927,0.908,0.865,3.786,1.1,0.864,0.059,0.0,0.0,0.0,-0.0958587874565,-0.394117976278,10.4544052649,0.221726003928,-0.179617199326,-0.028315296712,-0.0826471596956,0.154989272356,-0.0473689995706,0.00464404999925,-0.026844673792,0.0308658519873
1555426870597766599,-0.000209436751902,0.000508167024236,0.0693156793714,0.00554832526519,0.0174799449368,-0.0091337842937,0.908,0.865,3.786,1.1,0.864,0.059,-1.0,-2.0,0.0,-0.157542682495,-0.000612634097124,10.2463917375,0.18716909194,-0.0422749192754,0.00072034183751,-0.0833201855421,0.154980123043,-0.0475246682763,0.00199009078547,-0.0276581852698,0.0314015599107
1555426870617825060,-0.000291882141028,0.000852951663546,0.0661600232124,0.00835945772319,0.0173782954069,-0.00899402451252,0.908,0.865,3.786,1.1,0.864,0.062,0.0,0.0,0.0,-0.284553434104,0.690017493814,9.76341113985,-0.0875796919558,0.114773129978,0.00907334198022,-0.0839839503169,0.155094623566,-0.0476756170392,0.00550422817242,-0.0228495422453,0.0311632678899
1555426870637660465,-0.000253885576967,0.000887711939868,0.066709689796,0.00160556000411,0.0153623615243,-0.00841594898752,0.915,0.864,3.717,1.1,0.864,0.062,-2.0,0.0,0.0,-0.0907547255047,-0.702948465049,10.7682954955,-0.120624286308,-0.0688585391811,-0.0397486613101,-0.0849393382668,0.155346333981,-0.047935012728,0.0107478772848,-0.0218119555741,0.030809529037
1555426870657852450,-0.000412729714299,0.00152239541057,0.0672387108207,0.00484709466438,0.0195455592573,-0.0105902598118,0.915,0.864,3.717,1.103,0.871,0.063,0.0,0.0,0.0,-0.114780962029,0.581549231485,9.44166108191,0.0503887139119,-0.177054539278,-0.0693251957443,-0.0856434628367,0.155663758516,-0.0483668111265,0.00682821261845,-0.0254691141409,0.0314996087704
1555426870678157518,-0.000773626496084,0.00127706606872,0.0644743517041,0.00985633630784,0.0213657050267,-0.0124187217178,0.915,0.864,3.717,1.103,0.871,0.06,1.0,1.0,0.0,-0.0386943835532,0.712285810634,9.86075850964,0.135886021955,-0.0698648104378,-0.036262050811,-0.0867285132408,0.156235545874,-0.0486129187047,0.00264585321918,-0.028289975776,0.0285038576665
1555426870697845982,-0.000990578904748,0.000814972096123,0.0647277310491,0.00985633630784,0.0213657050267,-0.0124187217178,0.915,0.864,3.717,1.103,0.871,0.065,1.0,1.0,0.0,0.0659022774082,-0.839752407521,10.3891550159,0.0599026280408,0.124838888536,-0.00513513634222,-0.0875149071217,0.156525149941,-0.0488711073995,0.00306139577365,-0.0274776386372,0.0287689480978
1555426870717849081,-0.000853407836985,0.00069051142782,0.066680572927,0.0104873015879,0.0155157741673,-0.0127265404876,0.915,0.864,3.717,1.103,0.871,0.065,0.0,-4.0,0.0,-0.596251580156,1.06130479731,9.52994117439,-0.103596799957,0.193351004554,0.0501299503613,-0.088292337954,0.156968459487,-0.0490964874625,0.00401639408918,-0.0232868687178,0.0296501852782
1555426870738001864,-0.0022810974624,0.000850985466968,0.0695276558399,0.00720089214314,0.0202461308298,-0.0109395625171,0.915,0.863,3.667,1.103,0.871,0.069,0.0,9.0,0.0,0.627471947595,-0.184592231009,9.87705353022,-0.15272652943,0.0245646421132,0.0629093951681,-0.0897229760885,0.157598748803,-0.0492550097406,0.00738397941473,-0.0261817345362,0.0286266635906
1555426870757750544,-0.00319302640855,0.00324449059553,0.0718553364277,-0.00309526053739,0.017310503393,-0.00656108017482,0.915,0.863,3.667,1.101,0.866,0.069,-3.0,1.0,0.0,-0.332386910655,0.0868440345861,10.242925508,0.113845775675,-0.0806426649812,0.0543556379972,-0.0904503017664,0.158125728369,-0.0496901422739,0.00372543126163,-0.0231890027355,0.0328012703771
1555426870777845329,-0.00376568012871,0.00380300171673,0.0742036551237,0.00959789004792,0.0103903063482,-0.00622405401798,0.915,0.863,3.667,1.101,0.866,0.072,-3.0,0.0,0.0,-0.211988994498,0.600192493871,9.09819914281,0.510614200808,0.143471095891,0.07581024267,-0.0918182358146,0.158921182156,-0.0500156506896,-0.00683983779712,-0.0270937486989,0.0311461656131
1555426870798198923,-0.00359394471161,0.00370621029288,0.0760954245925,0.0163989969787,0.00303417401981,-0.00468813775696,0.915,0.863,3.667,1.101,0.866,0.073,-5.0,-1.0,0.0,-0.0514206337184,0.309947818592,9.55242430329,0.474778172548,0.325412918598,0.0295100053412,-0.0923217087984,0.159680724144,-0.0504759401083,-0.0136468979145,-0.0139526649333,0.0356153142959
1555426870817930588,-0.00384943024255,0.00461730128154,0.0769430696964,0.0212766056435,0.00245854501398,-0.00353864747049,0.915,0.863,3.667,1.101,0.866,0.073,-1.0,2.0,0.0,0.832945225239,-0.669970095679,9.00093889654,0.180218441232,0.101199705304,0.0365946671475,-0.0929801017046,0.160313084722,-0.0506623759866,-0.017207406162,-0.0138019928461,0.0339055671256
1555426870837729545,-0.00459355209023,0.00541805196553,0.078629411757,0.0220140391105,0.00798858653396,-0.00288849728766,0.92,0.859,3.639,1.101,0.866,0.073,-1.0,-1.0,0.0,-0.0160773065861,0.313409479894,8.92931401312,-0.0601970404993,-0.305154352055,0.0352625123584,-0.093629963696,0.16125690937,-0.0507788807154,-0.0145883907404,-0.0172868693949,0.0350527291922
1555426870857768311,-0.00554616563022,0.00578908482566,0.0774954929948,0.0220140391105,0.00798858653396,-0.00288849728766,0.92,0.859,3.639,1.101,0.871,0.073,-1.0,-1.0,0.0,-0.298771797772,0.0905955716036,9.49429011583,-0.0471568888665,-0.203881659492,0.0359927802576,-0.0939837619662,0.161958262324,-0.0508019924164,-0.0187452824104,-0.0208821715505,0.0367766840591
1555426870877754303,-0.00589204905555,0.00597596820444,0.0768416598439,0.0231969570101,0.0191283729919,-0.000552961447794,0.92,0.859,3.639,1.101,0.871,0.074,-1.0,6.0,0.0,-0.464507269934,0.630606859177,10.296761992,0.0795426130035,0.141736862034,0.0308786974522,-0.0943236574531,0.16308991611,-0.0508366934955,-0.0193056836796,-0.0164144957913,0.0361118333958
1555426870898029916,-0.00840464048088,0.00609440216795,0.0759154632688,0.0244362382174,0.0119090603045,-0.000459807278279,0.92,0.859,3.639,1.101,0.871,0.072,0.0,8.0,0.0,0.488313660286,1.13498424612,9.50621024966,0.0220323837131,0.411302260598,-0.0040431651338,-0.0945860743523,0.163860633969,-0.0507536605,-0.0183482310453,-0.00836527519142,0.0365787393742
1555426870917888641,-0.00981570128351,0.00608854973689,0.0757384598255,0.0250581050573,-0.00536581914778,-0.00219989121474,0.92,0.859,3.639,1.101,0.871,0.072,2.0,0.0,0.0,0.351874839887,-0.482171123698,9.92033111215,-0.0840258283168,0.481851628272,-0.022685084965,-0.0947848334908,0.164755150676,-0.0507013760507,-0.016001033142,0.00300455668232,0.0362324003248
1555426870937544647,-0.010258433409,0.00569512788206,0.0773106142879,0.022342914538,-0.00565469514405,-0.000883500115612,0.92,0.857,3.64,1.101,0.871,0.075,0.0,8.0,0.0,-0.218115049247,-0.165734412353,10.1603768563,-0.100030411138,0.36999669867,-0.012612777736,-0.0949600115418,0.165891245008,-0.0502901040018,-0.0144269959558,0.0103046506338,0.0361566858619
1555426870957805007,-0.012522995472,0.00541484635323,0.0773510038853,0.021494163018,-0.0113013425482,-0.00201332156604,0.92,0.857,3.64,1.102,0.867,0.075,2.0,0.0,0.0,0.0471759525826,0.222026690338,9.69310363412,-0.101323367525,0.0461931532858,-0.0335120269769,-0.0951645150781,0.166546106339,-0.0500667281449,-0.0135637243628,0.0110268571354,0.0339685109541
1555426870977824275,-0.0137091577053,0.00483023561537,0.0770590230823,0.021494163018,-0.0113013425482,-0.00201332156604,0.92,0.857,3.64,1.102,0.867,0.074,2.0,0.0,0.0,0.079638391966,-0.502549912781,9.36352649331,-0.169009695546,0.0378498940319,-0.0674096047781,-0.0953440442681,0.167224764824,-0.0497163124382,-0.0104191337712,0.0121113558646,0.0335347507642
1555426870997913237,-0.0138942310587,0.00466712610796,0.0774756669998,0.0169296651154,-0.0173667886785,-0.00402692401234,0.92,0.857,3.64,1.102,0.867,0.075,5.0,2.0,0.0,-0.341028437577,0.312646491341,9.77941847742,-0.192443299386,0.197569368497,-0.0537905609869,-0.0958570241928,0.168112620711,-0.0490907840431,-0.00303519720516,0.0181634773651,0.0316574543329
1555426871017856667,-0.0159647166729,0.00355278048664,0.0788019225001,0.0105404472561,-0.0235435903125,-0.00562858992359,0.92,0.857,3.64,1.102,0.867,0.075,2.0,1.0,0.0,0.502854918167,-0.461533558778,9.15865584433,-0.145493217462,0.207538129734,-0.0207452342658,-0.0962187200785,0.16868840158,-0.0485862866044,0.00149011251063,0.0236748724493,0.0323232635178
1555426871037602914,-0.0165110807866,0.00329194101505,0.0801632478833,0.0113382502158,-0.020971979546,-0.00490671670343,0.924,0.855,3.611,1.102,0.867,0.077,7.0,8.0,0.0,0.360484280214,0.118192985952,10.1560405612,-0.174375632248,0.15565695538,-0.0107587411611,-0.0969972237945,0.169282630086,-0.0478112027049,0.00976096387921,0.0228158662004,0.0302233421197
1555426871057819653,-0.0181806776673,0.00210918858647,0.0816027373075,0.00755714819559,-0.0222512414592,-0.00523294977578,0.924,0.855,3.611,1.103,0.872,0.077,2.0,0.0,0.0,-0.191143579334,0.636263894141,9.37349014878,-0.0862665704461,-0.0629568826593,-0.022560582184,-0.0973625257611,0.16962711513,-0.0474995225668,0.00542541135636,0.0255947092814,0.0321820925335
1555426871077750591,-0.0192596595734,0.00137379672378,0.0805784165859,0.00473028488196,-0.0239992530138,-0.00591854054697,0.924,0.855,3.611,1.103,0.872,0.075,3.0,1.0,0.0,-0.250428791195,0.0304936339078,10.2142367291,-0.140846018005,-0.0382804397952,-0.0297744385121,-0.0983319506049,0.169943764806,-0.046587780118,0.0122284411338,0.0208643259001,0.0291081205139
1555426871097730083,-0.0196667741984,0.000516873144079,0.0812917798758,0.000857811989344,-0.0279127287044,-0.00662988595844,0.924,0.855,3.611,1.103,0.872,0.074,5.0,1.0,0.0,0.350524059981,0.504517500848,9.76907533765,-0.262496037451,0.072523202805,-0.0444636049277,-0.0987975373864,0.170159861445,-0.046174891293,0.013988903568,0.0281869745844,0.0317354850856
1555426871117768813,-0.0196668822318,-0.000249500852078,0.079566821456,0.000857811989344,-0.0279127287044,-0.00662988595844,0.924,0.855,3.611,1.103,0.872,0.074,0.0,0.0,0.0,0.695554076135,-0.409071609043,9.09023698926,-0.226386336099,-0.00141626828748,-0.0409950914405,-0.0993822440505,0.170253783464,-0.0457040406764,0.0164881186599,0.0267807640219,0.0283639997097
1555426871137649204,-0.0202093031257,-0.00080247875303,0.0808510929346,-0.00863487591343,-0.0253791366431,-0.00869166522293,0.924,0.85,3.55,1.103,0.872,0.074,2.0,-1.0,0.0,-0.00436839457165,0.0679149758304,9.92313543677,-0.00771652746371,-0.182013511675,-0.0270313763475,-0.100200235844,0.170288562775,-0.0450644753873,0.0176847248137,0.0248284646944,0.0292448519141
1555426871157864422,-0.0203529838473,-0.00143085489981,0.0786434933543,-0.00699617879925,-0.0189183452893,-0.00921237563388,0.924,0.85,3.55,1.103,0.872,0.074,-1.0,3.0,0.0,0.00921097549202,0.115961524006,9.50052558661,0.0319290856368,-0.153161723242,-0.0253135354953,-0.100859478116,0.170146986842,-0.044668931514,0.0187508046284,0.0249913681777,0.0298832456166
1555426871177945821,-0.0208954997361,-0.00271753990091,0.0799933075905,-0.00715906334912,-0.022169563557,-0.00903453681031,0.924,0.85,3.55,1.103,0.872,0.077,2.0,0.0,0.0,-0.748054617494,0.454405510537,10.2408953547,-0.0761810379175,-0.136263400204,-0.0385876395881,-0.101997151971,0.169776976109,-0.0440307445824,0.0198086523445,0.0170549088247,0.0276193733091
1555426871197915825,-0.0197317898273,-0.00388070242479,0.0826334059238,-0.0148737910985,-0.0141096792072,-0.0111455205767,0.924,0.85,3.55,1.103,0.872,0.077,1.0,1.0,0.0,0.341039364561,-0.862974770665,10.4479967165,-0.239447376902,-0.157595969681,-0.0501911905828,-0.102736376226,0.169609889388,-0.0437558107078,0.0237812858364,0.00927991912757,0.0246520795785
1555426871217786342,-0.0202348344028,-0.0040177879855,0.0818043574691,-0.0161632812147,-0.00827409092669,-0.0116964765914,0.924,0.85,3.55,1.103,0.872,0.077,3.0,0.0,0.0,-0.488508884199,1.10298185013,9.35327573955,-0.136429914351,-0.298269215109,-0.0495063836756,-0.103514567018,0.169458091259,-0.0433163493872,0.0291944471972,0.00889430666103,0.0256691636384
1555426871237658039,-0.0203638039529,-0.00516199646518,0.083067163825,-0.0161632812147,-0.00827409092669,-0.0116964765914,0.924,0.85,3.55,1.103,0.872,0.077,3.0,0.0,0.0,0.128058207203,0.0381101050973,9.71917987704,0.00653243610879,-0.286586826224,-0.0252141746195,-0.104718632996,0.169216185808,-0.0429295040667,0.0307630092902,-0.00065101972983,0.0242463826841
1555426871257698643,-0.0192994493991,-0.0054699932225,0.0826497524977,-0.0178099522077,-0.00239703795622,-0.0125446684314,0.928,0.85,3.709,1.105,0.863,0.08,1.0,-1.0,0.0,-0.812285111994,-0.441954486072,10.0461433125,0.0377393270736,-0.119003236797,-0.0262437464552,-0.105300873518,0.169071659446,-0.0428771451116,0.0270901985645,0.00152892312249,0.0238321463869
1555426871277935772,-0.0192681793123,-0.00599279627204,0.0823431387544,-0.0183452288615,0.00207902414281,-0.0134115013588,0.928,0.85,3.709,1.105,0.863,0.08,0.0,0.0,0.0,-0.0472725504125,0.175666639041,9.80687700212,0.0298145502954,-0.150030145406,-0.0102164882737,-0.106634579599,0.16869983077,-0.0428062900901,0.0274587588069,-0.00227430408079,0.0248986023563
1555426871298106166,-0.0194779355079,-0.00615199934691,0.0828848704696,-0.0186537727185,0.00659887157501,-0.0136688646692,0.928,0.85,3.709,1.105,0.863,0.078,0.0,0.0,0.0,-0.707740112096,0.140686639845,10.4139507186,0.0115799965832,-0.122965621025,0.00520227452927,-0.10757073015,0.168506234884,-0.0428105406463,0.0289189012609,-0.00740008980906,0.0257130975437
1555426871317767662,-0.0198328085244,-0.0061751161702,0.0815501958132,-0.0192107333292,0.00340896140823,-0.0120251044281,0.928,0.85,3.709,1.105,0.863,0.078,0.0,-4.0,0.0,0.264252723623,-0.354549173601,9.59338697255,0.109851533382,-0.0670035060014,0.035990258577,-0.10837046057,0.168374374509,-0.0428802147508,0.0260395615258,-0.00480919829292,0.0248765513304
1555426871337643270,-0.0190511494875,-0.00593488616869,0.0827081501484,-0.0182410951017,0.00462133246505,-0.0113017940372,0.933,0.85,3.497,1.105,0.863,0.085,-1.0,0.0,0.0,-0.486380936243,0.32895949211,10.4657102716,0.172636937596,0.115575240809,0.0344607885182,-0.109569877386,0.168125107884,-0.0429028682411,0.0245849943494,-0.0039999259011,0.0266879529042
1555426871357706283,-0.0188773162663,-0.005393658299,0.0842943564057,-0.0106547124714,0.00393605456327,-0.011468376844,0.933,0.85,3.497,1.113,0.864,0.084,0.0,1.0,0.0,0.665617720708,-0.596829796694,9.55518009603,0.210717444733,0.0478802866423,0.00399803937756,-0.110552467406,0.16806319356,-0.0430067032576,0.0188213965452,-0.00306471757373,0.0234849703964
1555426871377645501,-0.0188696533442,-0.00572311226279,0.0850423127413,-0.0106547124714,0.00393605456327,-0.011468376844,0.933,0.85,3.497,1.113,0.864,0.084,-12.0,-8.0,0.0,0.741055792719,-0.474038450718,9.19007527292,0.24029381272,-0.0151384125632,0.00263551883035,-0.112110435963,0.167800650001,-0.0434017181396,0.0129665278131,-0.00584989912973,0.0270467082789
1555426871397777748,-0.0177719220519,-0.00394274294376,0.0914116948843,-0.0174163494822,-0.00255924241173,-0.00918999779865,0.933,0.85,3.497,1.113,0.864,0.089,-4.0,-2.0,0.0,-0.671671562344,0.481488863267,10.4816299009,0.111386154993,-0.0713218175478,-0.00276704881958,-0.113333471119,0.167685300112,-0.0435927547514,0.0125522685903,-0.0126841310425,0.0256749712265
1555426871417689787,-0.0174228958786,-0.00306802475825,0.0942712053657,-0.00391996402484,0.00765878784262,-0.0105843883738,0.933,0.85,3.497,1.113,0.864,0.089,-1.0,0.0,0.0,-0.66167355448,0.626978808045,10.2115633821,0.256796456599,-0.130783854715,-0.00706031416814,-0.114051215351,0.167711347342,-0.0437951013446,0.00754809206432,-0.0105005386887,0.0261793580942
1555426871437746421,-0.0176618192345,-0.0028738018591,0.0973445549607,0.00493627831168,0.0103857664908,-0.0110283175619,0.928,0.851,3.64,1.113,0.864,0.091,-2.0,0.0,0.0,0.250348428525,0.0522738840943,9.44128744483,0.335167711487,-0.118257618271,-0.00767331195339,-0.115474633873,0.167705833912,-0.0441266447306,0.00075429841648,-0.0191122761731,0.0256754109408
1555426871457720435,-0.0175555776805,-0.00297917728312,0.0968394204974,0.00988915456679,0.0122164993658,-0.0110531244913,0.928,0.851,3.64,1.11,0.868,0.089,-1.0,0.0,0.0,-0.0592846180033,-1.05928772718,9.05693358779,0.161924638427,0.0102776255058,0.00480416263507,-0.11621401459,0.167734533548,-0.0443093813956,-0.0053198911615,-0.0130354949675,0.02639836646
1555426871477788348,-0.0175603684038,-0.0025394372642,0.095521427691,0.00990991682032,0.0104011712132,-0.0107879495884,0.928,0.851,3.64,1.11,0.868,0.089,-2.0,0.0,0.0,-0.585985002369,0.15211722468,9.73229167342,-0.0321639369136,0.135390116393,-0.00219759033719,-0.11721996963,0.167846038938,-0.0444944091141,-0.00708332940382,-0.0141185840001,0.0255889661299
1555426871497860630,-0.0175596754998,-0.0019397274591,0.0963988155127,0.00990991682032,0.0104011712132,-0.0107879495884,0.928,0.851,3.64,1.11,0.868,0.089,-2.0,0.0,0.0,-0.982064280957,0.838431740776,10.4944212699,-0.0510675037395,0.130133777092,0.00132700921863,-0.117738470435,0.168010994792,-0.0446334183216,-0.00601857594985,-0.01016877029,0.0251427472382
1555426871517641278,-0.0175070073456,-0.00181474245619,0.0957955345511,0.0113046080414,0.00808728526053,-0.0110342389341,0.928,0.851,3.64,1.11,0.868,0.093,0.0,0.0,0.0,1.29843241543,-0.215365450904,8.83601350129,-0.0124248605122,0.034689789163,0.00592258158184,-0.118277534842,0.168198421597,-0.0446474067867,-0.00647274445348,-0.0103118889865,0.0246724334286
1555426871537690058,-0.0179256573319,-0.00180853961501,0.0963164642453,0.0129707596417,0.00735871096531,-0.0112679760526,0.928,0.856,3.623,1.11,0.868,0.09,0.0,0.0,0.0,0.0108288937819,0.0980766820349,9.47507148743,0.0522402933045,0.0262219792744,-0.00464994272141,-0.118967972696,0.168586581945,-0.0447451137006,-0.00628104679088,-0.00955521600534,0.0264663232645
1555426871557752834,-0.0181086212397,-0.00199401308782,0.094162851572,0.012212364184,0.00716824345265,-0.0111923849298,0.928,0.856,3.623,1.111,0.866,0.099,0.0,0.0,0.0,0.493402309343,-0.535411959104,9.88072207332,-0.0326242497439,-0.0049763718898,-0.00330426822854,-0.119480326772,0.168828517199,-0.0447559393942,-0.00373557558886,-0.00952780266264,0.0268108551755
1555426871577983963,-0.0183645244688,-0.00175679533277,0.095983967185,0.0084824770402,0.00554620253855,-0.0110873429904,0.928,0.856,3.623,1.111,0.866,0.099,-1.0,0.0,0.0,-0.413464439437,0.393993430585,9.87167993903,-0.123382672051,0.0570148917306,0.00840692856962,-0.120430141687,0.169324293733,-0.0445481389761,-0.00263158368212,-0.00618683108721,0.0250955239774
1555426871597927904,-0.0183149911463,-0.00132375478279,0.0963257849216,0.00692296527596,0.00827763261885,-0.0105488653419,0.928,0.856,3.623,1.111,0.866,0.095,0.0,4.0,0.0,0.093167323228,0.0770452888682,10.4491848707,-0.0347867719192,0.035167537376,0.00226011350534,-0.121170185506,0.169676169753,-0.0444491542876,-0.00440493557483,-0.00732872585729,0.0246718469398
1555426871617756191,-0.0191140696406,-0.00114827253856,0.0963997617364,0.010926167649,0.00291033702912,-0.0113597021865,0.928,0.856,3.623,1.111,0.866,0.095,0.0,0.0,0.0,-0.503083361574,0.350877816528,9.97654390454,0.0308494588562,0.0137479980043,0.0031575015249,-0.122141800821,0.17001453042,-0.0443149022758,-0.00413580424636,-0.00668326266813,0.0241066520124
1555426871637798934,-0.0184680242091,-0.00190958322491,0.0984622687101,0.00982942277637,0.00471219047085,-0.0112905421816,0.929,0.849,3.663,1.111,0.866,0.096,0.0,3.0,0.0,-0.190916652549,0.156987763457,10.4600899279,-0.0556397144063,0.00937662609411,-0.00549809607047,-0.123961314559,0.170518293977,-0.0440772771835,-0.00306789853321,-0.00858012542729,0.0200955854616
1555426871657847061,-0.0204623434693,-0.00132716214284,0.106070950627,0.00158883566456,0.01393728634,-0.0102451380613,0.929,0.849,3.663,1.111,0.867,0.096,-8.0,8.0,0.0,-0.0413759623328,-0.0953845143132,10.5555480623,-0.134154609384,-0.0550715539548,-0.0175815694995,-0.12526679039,0.17109619081,-0.0436991639435,0.00174983512055,-0.0139953987964,0.0237679927709
1555426871677867013,-0.0204623434693,-0.00132716214284,0.106070950627,0.00189646783105,0.012242890668,-0.0110985376297,0.929,0.849,3.663,1.111,0.867,0.106,3.0,0.0,0.0,-0.0259449386713,-0.231652541198,10.1793499017,-0.168720326449,0.00619614752273,-0.0177430694137,-0.127474620938,0.171742960811,-0.0434900484979,0.0011763740192,-0.00922490423964,0.0243286289712
1555426871698465368,-0.0210178606212,-0.00159951706883,0.109990648925,-0.00075643547251,0.00756584924221,-0.0116125152365,0.929,0.849,3.663,1.111,0.867,0.105,0.0,1.0,0.0,-1.01420094363,1.13094893642,9.73080706537,0.000805065015078,0.317842616884,-0.0315868049383,-0.12893883884,0.172232538462,-0.043392688036,0.0013401981695,-0.00246071827712,0.0242180008677
1555426871717910617,-0.0215715896338,-0.001395246014,0.110477268696,0.00349652271189,-0.0031238429658,-0.0126077166896,0.929,0.849,3.663,1.111,0.867,0.105,1.0,2.0,0.0,-0.584906812347,0.731908481643,10.3678372371,0.0922146075827,0.44467007116,-0.0346451167163,-0.130470365286,0.172746285796,-0.0431464090943,0.00382983335365,0.00479489670501,0.0227578471308
1555426871738061391,-0.0217664316297,-0.00189740746282,0.112811230123,0.00776348752416,-0.013233927811,-0.0134780543786,0.928,0.85,3.546,1.111,0.867,0.106,0.0,4.0,0.0,-0.211719437856,0.0861830342654,9.99950241208,0.140483927965,0.302764031818,-0.0464637762256,-0.132662847638,0.173438161612,-0.0427614636719,-0.00373565009134,0.0128994553895,0.0218646655319
1555426871758792016,-0.0216464288533,-0.00233678077348,0.112742684782,0.00776348752416,-0.013233927811,-0.0134780543786,0.928,0.85,3.546,1.111,0.869,0.11,1.0,0.0,0.0,-0.883496012539,-0.0458925298601,9.76763809204,0.0485025883265,0.184176897297,-0.0516646926468,-0.133803263307,0.173866823316,-0.0426385626197,-0.00510292993132,0.0147800466889,0.0204849602714
1555426871778033787,-0.0222624130547,-0.00251437118277,0.113807432353,0.00633052116463,-0.0136838418295,-0.0148806081667,0.928,0.85,3.546,1.111,0.869,0.11,1.0,0.0,0.0,1.05689585052,0.682387973741,8.61168448806,-0.184942839071,-0.188022069147,-0.0304370517167,-0.135544776917,0.174461945891,-0.0421248152852,0.0038808472431,0.0152305659927,0.019486984857
1555426871798057119,-0.0232062712312,-0.00300408550538,0.115665465593,0.00212316343714,-0.0103403751986,-0.015579730605,0.928,0.85,3.546,1.111,0.869,0.112,1.0,0.0,0.0,-0.086656284146,0.281984240636,9.18571675837,-0.187701424552,-0.0814750443023,-0.0221921941844,-0.136765420437,0.17480507493,-0.0419575087726,0.00620304407032,0.00797985304778,0.0193412428041
1555426871818033991,-0.0232062712312,-0.00300408550538,0.115665465593,-0.00180276305168,-0.010436994891,-0.0160480454021,0.928,0.85,3.546,1.111,0.869,0.112,1.0,1.0,0.0,-0.459490468539,-0.380530435815,10.3565228748,-0.097398350776,0.0672758558348,-0.0196664542872,-0.137526616454,0.175240144134,-0.0416037924588,0.00809800452022,0.0101480590005,0.0178380973824
1555426871837574819,-0.0231225099415,-0.00450035464019,0.116802640259,0.00163037512589,-0.0145495335507,-0.015979286952,0.933,0.848,3.545,1.111,0.869,0.113,1.0,0.0,0.0,-0.380457162894,-0.200623048805,9.33865536153,0.0395703918034,0.103917236492,-0.0187064367291,-0.138896510005,0.175713181496,-0.0410021394491,0.00413460619529,0.0121036936823,0.0180367940695
1555426871857588030,-0.0253964494914,-0.00537056196481,0.11636094749,0.00264494808509,-0.00713784596552,-0.016347721765,0.933,0.848,3.545,1.116,0.863,0.112,-1.0,4.0,0.0,-0.0125151199987,0.677639523,9.86908260584,0.000813505337191,-0.0495910721983,-0.0327894843254,-0.139657378197,0.176043361425,-0.0407121255994,0.00677345864785,0.0160844937157,0.0196551644941
1555426871877687919,-0.0252803042531,-0.00651758071035,0.117867089808,0.00220603234978,-0.00951089726673,-0.017011851723,0.933,0.848,3.545,1.116,0.863,0.112,3.0,-2.0,0.0,-0.0937331875227,0.10378964927,9.42907904327,-0.205573715535,-0.0474115578069,-0.0374345615763,-0.140535458922,0.176361098886,-0.040422655642,0.00739488167241,0.0122866935539,0.0166418984469
1555426871897621788,-0.0252803042531,-0.00651758071035,0.117867089808,-0.00783871922421,-0.0115796751313,-0.0180503212215,0.933,0.848,3.545,1.116,0.863,0.112,1.0,0.0,0.0,-0.827470331043,0.454898138456,9.80968658924,-0.25623309816,0.0326373991018,-0.0271362924109,-0.141905710101,0.17666439712,-0.0399771854281,0.0152995374056,0.0158113465882,0.0140501636942
1555426871917611079,-0.0255599487573,-0.00613897433504,0.118167638779,-0.0122234287861,-0.0115297575056,-0.0187395202639,0.933,0.848,3.545,1.116,0.863,0.112,2.0,1.0,0.0,-0.646870085523,0.616820805743,10.0969918692,-0.0984046345163,0.0170520612943,-0.00910383309411,-0.142948389053,0.176909714937,-0.0397457890213,0.0209594625338,0.0161842300777,0.0158118549209
1555426871937558863,-0.0260263085365,-0.00672124605626,0.119291990995,-0.0115168037236,-0.0099370592172,-0.0189229642093,0.936,0.847,3.691,1.116,0.863,0.119,0.0,0.0,0.0,-0.207565630674,-0.141018853057,10.9283606851,0.0867638991349,-0.108419659855,-0.0167770618237,-0.144629687071,0.177125364542,-0.0393859855831,0.0162173711316,0.0157305277647,0.016828254302
1555426871957665736,-0.0260263085365,-0.00672124605626,0.119291990995,-0.008714437851,-0.00708427117468,-0.0191267376446,0.936,0.847,3.691,1.112,0.865,0.122,0.0,0.0,0.0,0.00901998281654,-0.0583845807659,10.2081497777,0.151122440927,-0.132229027402,-0.010959629852,-0.145984053612,0.177336022258,-0.0390953868628,0.0157202659118,0.0121720615969,0.0135212054887
1555426871977713641,-0.0263691060245,-0.00653277197853,0.123239465058,-0.00889698037882,-0.00576194719502,-0.0193462091661,0.936,0.847,3.691,1.112,0.865,0.122,0.0,0.0,0.0,0.0981599043589,-0.0791264865082,10.1953970003,0.069852718022,-0.0776143512162,0.00139281530498,-0.148293554783,0.177496701479,-0.0389869958162,0.0149972088109,0.0112646338285,0.0152060333977
1555426871997621117,-0.0263691060245,-0.00653277197853,0.123239465058,-0.00933909008691,-0.00803527299623,-0.0189220966013,0.936,0.847,3.691,1.112,0.865,0.123,0.0,-2.0,0.0,-0.613031481095,0.327802803218,10.5145777917,0.011874102154,0.0359313361378,0.00876929532841,-0.150081947446,0.177611783147,-0.0387615561485,0.0120509953156,0.0109267856728,0.0168334436194
1555426872017629245,-0.0257416311651,-0.00623090798035,0.125047370791,-0.00431646475859,-0.00539932296265,-0.0184458797059,0.936,0.847,3.691,1.112,0.865,0.123,0.0,0.0,0.0,-0.468362083398,0.585343489721,9.97924765706,0.0532897868335,0.0292201972386,0.0359284441113,-0.151831075549,0.177745819092,-0.0385195799172,0.0124631466223,0.0107330547844,0.0162554985602
1555426872037450862,-0.0266258697957,-0.00735624181107,0.127623975277,-0.00569502590996,-0.0163040240769,-0.016960655572,0.938,0.844,3.605,1.112,0.865,0.127,-1.0,-8.0,0.0,-0.503259655125,-0.364657657295,10.4315742266,0.0940258067953,-0.0216956582022,0.0259410095376,-0.154736965895,0.177823990583,-0.0383368991315,0.0124111286083,0.0101876320902,0.0169460585158
1555426872057791517,-0.0235454328358,-0.00374826556072,0.132282689214,-0.0141939713766,-0.0114234984184,-0.0174049842342,0.938,0.844,3.605,1.117,0.862,0.13,-2.0,0.0,0.0,0.0590942865657,0.494428788051,9.22643150568,0.0197915229899,-0.141988264441,0.0160940910413,-0.156876444817,0.177951037884,-0.0381137095392,0.00831548926304,0.005263220516,0.016652525412
1555426872078001819,-0.0235454328358,-0.00374826556072,0.132282689214,-0.00620353363357,-0.0122558423694,-0.0156174080927,0.938,0.844,3.605,1.117,0.862,0.13,2.0,-9.0,0.0,-0.198643949032,0.139565025112,10.0233111048,0.237101348363,-0.402658871412,0.0247040877246,-0.159717366099,0.178162753582,-0.0379423312843,0.00579815182172,-0.00213137580533,0.0172544845361
1555426872097967464,-0.0210057012737,-0.00550640840083,0.140231639147,0.00755442937859,0.00258818452294,-0.0150366194723,0.938,0.844,3.605,1.117,0.862,0.138,0.0,0.0,0.0,-0.986442676038,0.494548729062,9.8923428297,0.420046550301,-0.480197239313,0.0201236753539,-0.161792635918,0.178275182843,-0.0376416929066,-0.00321107666087,-0.0183118965208,0.0150769976731
1555426872117777631,-0.0222198683769,-0.00530822714791,0.142832249403,0.0138903075542,0.0195965587922,-0.0151723553835,0.938,0.844,3.605,1.117,0.862,0.138,0.0,-1.0,0.0,0.612812977955,-0.225553712547,9.21473005772,0.198479137615,-0.48011055342,0.0289714767181,-0.16348131001,0.178579032421,-0.0373839624226,-0.00518676263872,-0.0192113171059,0.0207146861024
1555426872137729353,-0.0215794276446,-0.0053075524047,0.14464841783,0.0134776361791,0.0243040060275,-0.0148512842664,0.937,0.845,3.428,1.117,0.862,0.14,0.0,-1.0,0.0,-0.747800555974,0.361371047013,9.41129999936,-0.171634357314,-0.11550739678,0.0112211824397,-0.166408672929,0.179009690881,-0.036855045706,0.000708657077571,-0.0233433143863,0.0205195848624
1555426872158077591,-0.0215794276446,-0.0053075524047,0.14464841783,0.0134776361791,0.0243040060275,-0.0148512842664,0.937,0.845,3.428,1.117,0.86,0.145,0.0,-1.0,0.0,-0.676879750416,0.20308699239,10.0848951495,-0.285900396453,0.064420568478,0.0258588073255,-0.168318480253,0.179459244013,-0.03663315624,0.00246637150899,-0.022667152088,0.0216382232241
1555426872177875647,-0.0201556384563,-0.00536636356264,0.147619917989,0.000853254056758,0.0172039675867,-0.0133805140231,0.937,0.845,3.428,1.117,0.86,0.145,0.0,1.0,0.0,0.836420298591,-0.377421069257,9.1877241075,-0.154590542456,0.170386183645,0.0304533302888,-0.171070367098,0.180280655622,-0.0360228233039,0.00931170626264,-0.0162813619263,0.0194223058339
1555426872197886100,-0.0206309743226,-0.00514021795243,0.150992318988,0.00125540282463,0.0158635049834,-0.0130505837341,0.937,0.845,3.428,1.117,0.86,0.146,0.0,0.0,0.0,0.0635042566108,0.0336297971592,10.0332864547,0.0575725576628,0.029559506848,0.0243596889808,-0.172781392932,0.180832177401,-0.0356135368347,0.00544651780909,-0.0183930989899,0.0190701608272
1555426872217992691,-0.021156841889,-0.00596305122599,0.15309292078,0.00536023899306,0.0174732891147,-0.0129530558622,0.937,0.845,3.428,1.117,0.86,0.146,0.0,1.0,0.0,-0.0131382835808,0.81000513643,9.13943078399,0.114354198094,-0.0505665714608,0.0226905111557,-0.174334794283,0.181492388248,-0.035164065659,0.0047351431774,-0.0168567636726,0.0189249894317
1555426872237856908,-0.021156841889,-0.00596305122599,0.15309292078,0.00406724229468,0.017457439145,-0.0121474028191,0.934,0.844,3.237,1.117,0.86,0.156,-1.0,-1.0,0.0,-0.226827199571,-0.300808236804,9.200535357,-0.0831447214701,0.0876255981951,0.0223370118911,-0.176795870066,0.18254904449,-0.0344170331955,0.00595438730945,-0.0191968082216,0.0223949333621
1555426872258046673,-0.0245038699359,-0.00531556084752,0.160809651017,-0.00010976971673,0.022160854188,-0.0112826328012,0.934,0.844,3.237,1.124,0.862,0.162,0.0,10.0,0.0,-0.817325923517,1.44227699026,9.64788009882,-0.224682878397,0.25390942353,0.0112376607489,-0.178334727883,0.183379456401,-0.0339220017195,0.0110047934246,-0.0125014640342,0.0224571378119
1555426872277852346,-0.0245038699359,-0.00531556084752,0.160809651017,-0.00288925930544,0.0162535894234,-0.0113023089844,0.934,0.844,3.237,1.124,0.862,0.162,0.0,2.0,0.0,0.282575503774,0.69857789062,9.93763770103,-0.182057104293,0.232609794027,0.0141368112011,-0.180592998862,0.184714332223,-0.0332501493394,0.0119116876298,-0.00488941582474,0.020441823852
1555426872298005324,-0.0255110114813,-0.00575102958828,0.161621123552,-0.00382789173201,0.00841957546391,-0.011420903917,0.934,0.844,3.237,1.124,0.862,0.158,1.0,4.0,0.0,-0.735649018586,0.153022026485,10.8203661203,-0.0585973878234,0.480850679176,0.00751347079326,-0.182143911719,0.185626909137,-0.0325910896063,0.011911663774,0.00470880174377,0.0246957587185
1555426872317920496,-0.0279822405428,-0.00786001235247,0.16576191783,-0.000240369631408,-0.0016600849765,-0.0119920739485,0.934,0.844,3.237,1.124,0.862,0.158,2.0,4.0,0.0,-0.285975623131,-0.0461062227516,9.28172686994,0.0308516642865,0.466037944167,0.00655809244097,-0.183593437076,0.186510816216,-0.0321168489754,0.0139268172306,0.0143799710268,0.0225780987583
1555426872337733599,-0.0317100659013,-0.00894159916788,0.165142208338,0.000755556616347,-0.00292312774451,-0.012042120571,0.943,0.837,3.463,1.124,0.862,0.158,3.0,11.0,0.0,-0.191313532311,-0.0566253225971,10.4551455224,-0.0956348720812,0.369171651365,0.00639812800562,-0.185851886868,0.187726214528,-0.0313941426575,0.0136378743153,0.022914188129,0.0232044416804
1555426872357957307,-0.0304499417543,-0.00938787776977,0.162845566869,-0.00365639117981,-0.0165603730974,-0.0118945003035,0.943,0.837,3.463,1.121,0.856,0.15,0.0,1.0,0.0,0.384570679106,-0.13953121176,9.10530877233,-0.241260340458,0.221003222009,0.0194767061401,-0.187400743365,0.188444644213,-0.0309532992542,0.0196865799127,0.0273483634007,0.0213460094868
1555426872377886633,-0.0299390368164,-0.010882711038,0.157937511802,-0.00447986711645,-0.0232570008897,-0.0115170294682,0.943,0.837,3.463,1.121,0.856,0.15,4.0,-3.0,0.0,-0.183762017749,0.442348222956,10.1395479047,-0.345623847848,0.191142827892,0.0246958340058,-0.190014958382,0.189561873674,-0.0301569867879,0.0276268583189,0.0308185289164,0.0224378424886
1555426872397900977,-0.0343863852322,-0.0119647365063,0.15967515111,-0.0138757319487,-0.0183068647776,-0.0107206683605,0.943,0.837,3.463,1.121,0.856,0.144,3.0,3.0,0.0,0.148898140602,-0.281685246918,10.5122307193,-0.236204062813,0.0492334304698,0.0221533536444,-0.191853284836,0.190206497908,-0.0296376701444,0.0268204879624,0.0308742471837,0.0225273373226
1555426872417812203,-0.0343863852322,-0.0119647365063,0.15967515111,-0.0138757319487,-0.0183068647776,-0.0107206683605,0.943,0.837,3.463,1.121,0.856,0.139,3.0,3.0,0.0,-0.264873789288,0.523122683242,10.3000902271,-0.166880614768,0.0140362446207,0.0232241753486,-0.193819999695,0.190726280212,-0.0293317884207,0.0324846723834,0.0321504596344,0.0226546765977
1555426872438155039,-0.0345786325634,-0.0126673635095,0.153211057186,-0.0204529648197,-0.0263527945794,-0.00986024782569,0.95,0.834,3.637,1.121,0.856,0.139,0.0,0.0,0.0,-0.107622051453,-0.156522982903,10.9952750516,-0.113897465967,0.0582389138571,0.00372640032734,-0.197374135256,0.191336885095,-0.0289841685444,0.0333712302506,0.030733253683,0.0241912651357
1555426872457806275,-0.0354973226786,-0.015045940876,0.15201690793,-0.0184728483732,-0.0243612265402,-0.00958391261338,0.95,0.834,3.637,1.125,0.852,0.144,0.0,4.0,0.0,-0.0995935045928,0.770617049262,10.9378390217,-0.0439188053925,-0.0202838312039,-0.0146850801278,-0.200185254216,0.191707715392,-0.0287039726973,0.0375090539237,0.0288735944473,0.0191189436483
1555426872477946928,-0.0362787880003,-0.01635623537,0.150386929512,-0.0181237828557,-0.0233419120359,-0.00957568698262,0.95,0.834,3.637,1.125,0.852,0.144,2.0,-2.0,0.0,-0.637178471759,0.782550193146,11.294056077,-0.0875680156589,-0.172894831458,-0.0318376851159,-0.204924240708,0.191930308938,-0.0287455283105,0.0378233426287,0.0284031044985,0.0216198420694
1555426872497855861,-0.0362903736532,-0.0157972220331,0.152078777552,-0.023971886953,-0.0214403068267,-0.0106519317567,0.95,0.834,3.637,1.125,0.852,0.144,1.0,0.0,0.0,-0.681253394634,0.366303721592,12.3532382619,-0.221193138684,-0.106678917898,-0.0272024137074,-0.20876429975,0.192050039768,-0.0288327410817,0.041588248019,0.0250155010462,0.0218604501172
1555426872517877749,-0.0378062948585,-0.0176873225719,0.154618501663,-0.0248538905359,-0.0160417692885,-0.0106706404633,0.95,0.834,3.637,1.125,0.852,0.152,1.0,4.0,0.0,-0.0973192940187,0.327102708779,11.8146944976,-0.205162090699,-0.0300661295529,0.00401682922741,-0.213043510914,0.191979140043,-0.0290004946291,0.0448322020676,0.0269768914617,0.0240196771208
1555426872537855822,-0.0378062948585,-0.0176873225719,0.154618501663,-0.0267739651834,-0.0167633621486,-0.00985718102925,0.948,0.831,3.564,1.125,0.852,0.152,4.0,0.0,0.0,-0.119230519552,0.332976638898,11.4056279683,-0.177062512116,-0.059742060233,0.00541260911963,-0.220279723406,0.191882103682,-0.0294163953513,0.0474364746376,0.0273290887891,0.0231806106117
1555426872557917557,-0.0378300584853,-0.0189598724246,0.158080965281,-0.0308023125826,-0.0191748805231,-0.0093920485016,0.948,0.831,3.564,1.128,0.851,0.158,1.0,0.0,0.0,-0.150039855139,-0.113154440224,11.6066248369,-0.03413093105,0.0651564414991,-0.00223033395481,-0.225661441684,0.191662430763,-0.0298749245703,0.0486137384594,0.0265403505814,0.0216280784673
1555426872577970451,-0.0366106890142,-0.0189792197198,0.167598769069,-0.0321934126974,-0.0218244657334,-0.00906791162831,0.948,0.831,3.564,1.128,0.851,0.168,1.0,0.0,0.0,0.103166710669,0.257145615723,10.6021281517,-0.0399956570176,0.0694268535965,0.00971500775834,-0.234166309237,0.191198095679,-0.030691113323,0.0490969877201,0.0280717970438,0.0207328959588
1555426872597918310,-0.0355198085308,-0.0221904087812,0.172309592366,-0.0256610821788,-0.0248355542557,-0.00693796740333,0.948,0.831,3.564,1.128,0.851,0.168,4.0,0.0,0.0,-0.1040510929,-0.0468774522236,9.74912405312,-0.0628359585011,-0.0662779277624,0.0207512138947,-0.239959612489,0.190731137991,-0.0314340144396,0.0493537267153,0.0245378101577,0.0234797224506
1555426872618116070,-0.0355802103877,-0.0217459760606,0.180663004518,-0.0304835696508,-0.0217537171945,-0.00768285043934,0.948,0.831,3.564,1.128,0.851,0.181,1.0,-1.0,0.0,-0.193206403926,-0.0399348018318,10.2082737386,-0.20458057283,-0.182882700876,0.0114569314931,-0.245749369264,0.190417557955,-0.0323450751603,0.0532221514287,0.0252103658154,0.0222299497677
1555426872637828628,-0.0354800485075,-0.0222279466689,0.186140879989,-0.0341852283273,-0.0170536498283,-0.0075372192202,0.946,0.829,3.749,1.128,0.851,0.181,3.0,0.0,0.0,-0.134656817475,-0.00840726999042,9.62922397256,-0.271426548692,-0.232611774753,0.00501937257873,-0.25440338254,0.189613699913,-0.0340480878949,0.0608804080946,0.0182890152675,0.0232511788628
1555426872657891748,-0.0356650725007,-0.0208197720349,0.19460439682,-0.0430834133704,-0.0118100156791,-0.00834412894246,0.946,0.829,3.749,1.131,0.851,0.195,0.0,-1.0,0.0,-0.600672404096,0.469239677377,9.88321181774,-0.190067643181,-0.0607157160887,0.0160693007566,-0.260006189346,0.189001038671,-0.035357285291,0.0620510755068,0.0206245386661,0.0230934725516
1555426872678429293,-0.0356650725007,-0.0208197720349,0.19460439682,-0.0430834133704,-0.0118100156791,-0.00834412894246,0.946,0.829,3.749,1.131,0.851,0.214,0.0,0.0,0.0,-0.940956820026,1.57611288607,9.20295902789,-0.0976598981622,-0.0189851094894,0.0221520865623,-0.26804536581,0.188026636839,-0.0373180359602,0.0617014603309,0.019861463726,0.026895269586
1555426872697986453,-0.0346732996404,-0.0213312711567,0.211818650365,-0.0428827108928,-0.0110445482804,-0.00697579729453,0.946,0.829,3.749,1.131,0.851,0.214,0.0,0.0,0.0,0.615733296722,-0.561098156199,7.87824542463,0.220967901835,0.0855453781005,0.0412383295941,-0.272911369801,0.187287643552,-0.0390070304275,0.0561418984131,0.0208020546309,0.0263028745468
1555426872717785845,-0.0337349809706,-0.0218275170773,0.221654802561,-0.0363798623997,-0.0146367947286,-0.00566681304716,0.946,0.829,3.749,1.131,0.851,0.224,0.0,-4.0,0.0,0.0405398653122,0.247932797559,7.89182265937,0.262806046046,0.0971257595937,0.0436974176433,-0.277508497238,0.186632633209,-0.0406533069909,0.0560883620031,0.0234498395634,0.0282111637287
1555426872737590499,-0.0286063048989,-0.0241097491235,0.225461602211,-0.0267929714151,-0.0268176514283,-0.00142325856519,0.947,0.833,3.514,1.131,0.851,0.224,2.0,-6.0,0.0,0.280567222741,-0.199254325256,7.3251882863,0.167602081752,0.0211170469241,0.0413367292352,-0.283695459366,0.185458987951,-0.0431639701128,0.0481797699256,0.0277208080096,0.0289751955393
1555426872757798253,-0.0269827898592,-0.0214154087007,0.234152570367,-0.0306527365561,-0.0269132797174,-0.00155376841288,0.947,0.833,3.514,1.125,0.858,0.237,-1.0,-1.0,0.0,-0.358902206384,-0.218742528576,8.63869628549,-0.0844760856333,-0.254485598432,0.0209104334771,-0.287113845348,0.184551134706,-0.0452595986426,0.05251477724,0.0211776446365,0.0282447466423
1555426872777875205,-0.0273552890867,-0.0193919241428,0.242067664862,-0.0359294136684,-0.0164034484108,-0.00249878943521,0.947,0.833,3.514,1.125,0.858,0.247,-1.0,-1.0,0.0,0.0512561579375,-0.100331404936,7.87807410121,-0.197211090107,-0.640446965796,0.0158649135459,-0.29136762023,0.183295279741,-0.0482009723783,0.0526569295574,0.00554732291325,0.0269299879695
1555426872797845363,-0.0273552890867,-0.0193919241428,0.242067664862,-0.0386158524509,-0.00122299288237,-0.002006071214,0.947,0.833,3.514,1.125,0.858,0.247,0.0,-2.0,0.0,-0.574899631664,0.327256636731,9.01146973193,0.00121546763177,-0.756881433919,0.0200551946632,-0.293694078922,0.182416781783,-0.0504340007901,0.0554155077992,-0.00453188452154,0.0335610836307
1555426872817770949,-0.0240298528224,-0.0164052490145,0.25354835391,-0.0397055264228,0.0110941090841,-0.000418491123264,0.947,0.833,3.514,1.125,0.858,0.258,-1.0,-6.0,0.0,-0.779489468113,0.141765405452,9.49438016295,0.25018158057,-0.494331767062,0.039127196025,-0.295412033796,0.181476905942,-0.0531807057559,0.0537625491634,-0.0122428221236,0.0310757516555
1555426872837683423,-0.0227253995836,-0.0139921177179,0.257121920586,-0.03535300574,0.020614248352,0.000656147431746,0.94,0.834,3.406,1.125,0.858,0.258,-2.0,-2.0,0.0,-0.276864619609,0.830758878216,9.0920168817,0.527793087868,-0.063442089804,0.0377023840358,-0.297730892897,0.180382296443,-0.0564376749098,0.039321680293,-0.0152835986667,0.0365193077569
1555426872857781325,-0.0218529999256,-0.00973269809037,0.263942182064,-0.0289073091,0.022761324193,0.0014790576417,0.94,0.834,3.406,1.115,0.869,0.267,-6.0,-1.0,0.0,-0.0186964583443,0.25510866506,8.81901389122,0.594833607647,0.118429092555,0.016597129922,-0.298755466938,0.179676413536,-0.05899650231,0.0296827043029,-0.0173565124744,0.0355390602262
1555426872877741460,-0.0215500947088,-0.00561417732388,0.270347237587,-0.0198474805817,0.0222958868582,0.00190086230693,0.94,0.834,3.406,1.115,0.869,0.275,-6.0,0.0,0.0,0.0241791434982,0.142767828349,8.09574079692,0.594631806615,0.0417254924977,0.0248432274886,-0.299476861954,0.178703188896,-0.0630585253239,0.0125750164929,-0.0172974412707,0.0332793440909
1555426872897833620,-0.0198973417282,-0.0024918615818,0.27354902029,-0.00844879585464,0.0203521537695,0.00273790541085,0.94,0.834,3.406,1.115,0.869,0.275,-5.0,-3.0,0.0,-0.430826138332,0.410074223801,8.98392993093,0.659816269563,-0.0697443939446,0.0261861555966,-0.299597144127,0.178081423044,-0.0656842142344,0.00335695482328,-0.0202499002741,0.0331791978689
1555426872917761966,-0.0198973417282,-0.0024918615818,0.27354902029,0.00190036101366,0.0245193808583,0.00357194400612,0.94,0.834,3.406,1.115,0.869,0.272,-6.0,0.0,0.0,-0.110528866807,0.620651609078,8.76717715502,0.719183523162,-0.128781365634,0.016784281487,-0.299229115248,0.177595689893,-0.0681466162205,-0.00955641529827,-0.0237508218331,0.0371168831763
1555426872937719060,-0.0203982330859,0.00215621036477,0.275682121515,0.00190036101366,0.0245193808583,0.00357194400612,0.94,0.834,3.406,1.115,0.869,0.272,-6.0,0.0,0.0,-0.0144763343723,0.335382804684,8.86947419286,0.775432548019,-0.126911493654,0.0158365664848,-0.298109292984,0.176910996437,-0.07191105932,-0.0308094903689,-0.0266811680188,0.038915560936
1555426872957802390,-0.0192173104733,0.00600889138877,0.272942095995,0.014685941494,0.025940940878,0.00451456623292,0.935,0.842,3.299,1.097,0.883,0.262,-8.0,-1.0,0.0,-0.249618001655,0.335372279696,8.95351096094,0.745961541343,-0.0175604972374,0.0141518830284,-0.296996831894,0.176618158817,-0.0744239166379,-0.0409485568867,-0.0266360955527,0.037873210801
1555426872977778769,-0.0192173104733,0.00600889138877,0.272942095995,0.0255558082531,0.0268623072302,0.00589586154566,0.935,0.842,3.299,1.097,0.883,0.262,-8.0,-1.0,0.0,-0.449700548463,-1.43487719268,8.6866966635,0.70169747376,0.00263775208858,0.00502232910366,-0.295055687428,0.176224902272,-0.0778140723705,-0.05582934028,-0.0238309335168,0.0384719121495
1555426872997759667,-0.0187834594399,0.0118765309453,0.274293005466,0.0255558082531,0.0268623072302,0.00589586154566,0.935,0.842,3.299,1.097,0.883,0.252,-8.0,-1.0,0.0,-0.79806950748,-0.720332894996,9.11427138448,0.66800788676,0.0541634909245,0.00462873574079,-0.293664872646,0.176008716226,-0.0797822922468,-0.0646896187409,-0.0253131786085,0.0379184609785
1555426873017656173,-0.0187834594399,0.0118765309453,0.274293005466,0.0432840451079,0.0252813653416,0.00476273331521,0.935,0.842,3.299,1.097,0.883,0.252,-6.0,-1.0,0.0,-0.79806950748,-0.720332894996,9.11427138448,0.66800788676,0.0541634909245,0.00462873574079,-0.292274445295,0.175860717893,-0.0817356258631,-0.0710970205875,-0.0286750831844,0.0373098253043
1555426873037684116,-0.0176152475178,0.0124777462333,0.267102360725,0.0432840451079,0.0252813653416,0.00476273331521,0.935,0.842,3.299,1.097,0.883,0.252,-6.0,-1.0,0.0,-0.614901311025,0.0496527463384,9.12288024008,0.638127219329,0.085122218448,0.000779354847512,-0.290588825941,0.176043570042,-0.0841948091984,-0.069141238463,-0.03024637819,0.0390351374924
1555426873057770763,-0.0176152475178,0.0124777462333,0.267102360725,0.0432840451079,0.0252813653416,0.00476273331521,0.935,0.842,3.299,1.097,0.883,0.252,-6.0,-1.0,0.0,-0.527690491565,0.392395459637,9.66882950306,0.556153589659,0.0996864222713,0.0085187235989,-0.289975345135,0.176136672497,-0.0854929387569,-0.0683078656988,-0.0288086950135,0.0401750515158
1555426873078040078,-0.0176152475178,0.0124777462333,0.267102360725,0.0432840451079,0.0252813653416,0.00476273331521,0.935,0.842,3.299,1.097,0.883,0.252,-4.0,1.0,0.0,-0.527690491565,0.392395459637,9.66882950306,0.556153589659,0.0996864222713,0.0085187235989,-0.289872378111,0.176380127668,-0.0869084522128,-0.0683542366811,-0.0246568277265,0.041730964694
1555426873098157738,-0.0176152475178,0.0124777462333,0.267102360725,0.0554962116354,0.0252919410039,0.00529454629911,0.935,0.842,3.299,1.097,0.883,0.252,-4.0,1.0,0.0,-0.527690491565,0.392395459637,9.66882950306,0.556153589659,0.0996864222713,0.0085187235989,-0.290358662605,0.176606103778,-0.0875770971179,-0.0704333274324,-0.022609419545,0.0418332686036
1555426873118115359,-0.0181069541723,0.0154325356707,0.267186224461,0.0554962116354,0.0252919410039,0.00529454629911,0.935,0.842,3.299,1.097,0.883,0.252,-4.0,1.0,0.0,-0.519639131427,0.489811132215,10.3798170125,0.313687253345,-0.0130610709712,0.00997242724483,-0.291337013245,0.176947057247,-0.0879588127136,-0.0717829839515,-0.0230211952459,0.0413122941033
1555426873138105319,-0.0181069541723,0.0154325356707,0.267186224461,0.0554962116354,0.0252919410039,0.00529454629911,0.935,0.842,3.299,1.097,0.883,0.249,-3.0,0.0,0.0,-0.519639131427,0.489811132215,10.3798170125,0.313687253345,-0.0130610709712,0.00997242724483,-0.293781161308,0.177699223161,-0.0883572772145,-0.0672804115407,-0.0219606066078,0.0418323081693
1555426873158081191,-0.0186735987663,0.0173016302288,0.260318756104,0.0643632522579,0.0262973363303,0.00563694975269,0.935,0.842,3.299,1.097,0.883,0.249,-3.0,0.0,0.0,0.190789091885,-0.372162485495,10.2535756266,0.184172136896,-0.140487406719,0.0109705248856,-0.29601764679,0.17819301784,-0.088291592896,-0.0645344287799,-0.0192598810419,0.0436001523643
1555426873177988853,-0.0186735987663,0.0173016302288,0.260318756104,0.0643632522579,0.0262973363303,0.00563694975269,0.933,0.843,3.464,1.097,0.883,0.249,-3.0,0.0,0.0,0.190789091885,-0.372162485495,10.2535756266,0.184172136896,-0.140487406719,0.0109705248856,-0.300187498331,0.179118931293,-0.0875766947865,-0.0579952754662,-0.0148934858733,0.0456813138684
1555426873197833165,-0.0186735987663,0.0173016302288,0.260318756104,0.0668357643034,0.0270960807591,0.00578288109761,0.933,0.843,3.464,1.097,0.883,0.249,-2.0,-2.0,0.0,0.444405090697,-0.299854647294,9.97422372937,0.074451722586,-0.0866226101167,0.0271481143495,-0.303400218487,0.179771661758,-0.087184637785,-0.0586534400475,-0.0131096596155,0.0442733556513
1555426873217837142,-0.0179379340261,0.021100435406,0.260194957256,0.0702074926911,0.0289641655087,0.00586769913728,0.933,0.843,3.464,1.081,0.897,0.255,0.0,0.0,0.0,-0.119922948657,0.0816375001799,11.2382993674,0.00600186419958,-0.00199601778088,0.0459351762,-0.307040154934,0.180375948548,-0.0863374397159,-0.0540565237302,-0.00923847948412,0.0449323936055
1555426873237767224,-0.0181901101023,0.0219383146614,0.25779864192,0.0702074926911,0.0289641655087,0.00586769913728,0.933,0.843,3.464,1.081,0.897,0.248,-2.0,0.0,0.0,-0.5877001369,0.459830922671,11.487456243,0.0275227691,0.0213755275138,0.0293331215106,-0.312736749649,0.181383863091,-0.084949247539,-0.0480601242006,-0.00493236940233,0.0458515613378
1555426873258000402,-0.0177171621472,0.0235067903996,0.254291117191,0.0699738335949,0.0289262092214,0.00904369246685,0.933,0.843,3.464,1.081,0.897,0.248,-1.0,3.0,0.0,-0.197485780064,0.270693943296,11.7639535296,0.0590431344108,0.0764819335088,0.0353847472912,-0.316845446825,0.181979879737,-0.0836760625243,-0.0418571082341,-0.00169264974612,0.0470347658901
1555426873278228501,-0.0193891432136,0.0258032400161,0.254842758179,0.0698218253533,0.0240114161698,0.0077423518039,0.933,0.843,3.464,1.081,0.897,0.247,-2.0,0.0,0.0,0.214501250703,0.178510688189,11.3796768558,-0.0341697570259,0.0524843803408,0.0237895706898,-0.323193699121,0.182917013764,-0.0819040462375,-0.0374796098692,0.00840571643162,0.0472915115707
1555426873298098283,-0.0181864053011,0.0271399766207,0.25481981039,0.0703924242616,0.0229143664901,0.00793585594438,0.93,0.843,3.436,1.072,0.908,0.247,0.0,1.0,0.0,0.159408583827,-0.155702636819,11.7784207106,-0.108852198828,0.05322157662,0.0289716702134,-0.327350348234,0.18356487155,-0.0805655568838,-0.0294032867252,0.0128588207962,0.0471483748505
1555426873317583713,-0.0199174135923,0.0277645401657,0.25386813283,0.0682231672016,0.0241328937662,0.0100564967906,0.93,0.843,3.436,1.072,0.908,0.247,0.0,1.0,0.0,0.136778762899,-0.132689037547,11.1897008193,-0.189202015958,0.132247020385,0.00795590611441,-0.331658750772,0.18406252563,-0.0790216103196,-0.0299241392332,0.0135810209004,0.0474472008449
1555426873337530906,-0.019389539957,0.0289016049355,0.254671901464,0.0608569385279,0.0126870601648,0.00756237933056,0.93,0.843,3.436,1.072,0.908,0.249,1.0,0.0,0.0,-0.150025227964,0.247236777898,11.4455305374,-0.218300429753,0.237415917622,0.0284501941436,-0.337884217501,0.184956148267,-0.0767843201756,-0.021285990577,0.0149255237349,0.0479797351797
1555426873357694647,-0.0208219941705,0.0276559013873,0.25919675827,0.0574198877922,0.0116951939048,0.0111495226004,0.93,0.843,3.436,1.072,0.908,0.252,2.0,3.0,0.0,-0.325055196583,0.436991077065,11.0552066731,-0.178902673206,0.172271901434,0.013901822605,-0.341888636351,0.185345724225,-0.0750987008214,-0.0163204600397,0.0165790346824,0.0469138497343
1555426873377351554,-0.0220453031361,0.0276175588369,0.262472093105,0.0487126826082,0.00902334009046,0.0137992274449,0.933,0.841,3.496,1.071,0.909,0.262,3.0,3.0,0.0,-0.570255188271,0.558597155884,10.4138630104,-0.256179169148,0.15342264645,0.0128577864757,-0.347732156515,0.185972243547,-0.0727508217096,-0.00252538133093,0.0323099360592,0.0495414365068
1555426873397500226,-0.022083029151,0.025428859517,0.269021898508,0.043788331305,-0.000821529345328,0.0108337986114,0.933,0.841,3.496,1.071,0.909,0.262,2.0,0.0,0.0,0.461681712605,-0.312214455195,9.32406948209,-0.260890600722,0.314548319905,-0.00461126706851,-0.351422905922,0.186143159866,-0.0712528824806,0.00349263997073,0.0362518215106,0.0463857078024
1555426873417378685,-0.0198974292725,0.0262062810361,0.272970288992,0.0353136658573,-0.0119970309651,0.00901313269335,0.933,0.841,3.496,1.071,0.909,0.271,2.0,0.0,0.0,-0.175235534795,0.186977693997,10.2893687725,-0.287221990144,0.254882559237,0.023540149009,-0.354954957962,0.18638676405,-0.0696432068944,0.00745156131588,0.032644403753,0.0453840729842
1555426873437516914,-0.028412161395,0.0212770327926,0.282114773989,0.0281274502284,-0.00719439912754,0.0150552335119,0.936,0.836,3.248,1.071,0.909,0.271,2.0,0.0,0.0,0.429917992651,-0.267645278145,9.3129176724,-0.221010112938,-0.0541202020732,0.020827086938,-0.360028386116,0.186510026455,-0.0673633739352,0.0182150990763,0.027686299185,0.044554720382
1555426873458024461,-0.028412161395,0.0212770327926,0.282114773989,0.0233538733743,-0.0098062095824,0.014429979464,0.936,0.836,3.248,1.068,0.899,0.282,3.0,0.0,0.0,-0.0708109327219,0.102359977635,9.21060426235,-0.309980798898,0.166912156582,0.0193392620607,-0.363268882036,0.186433047056,-0.0656140372157,0.0190488318358,0.0227923617575,0.0432209194976
1555426873478362437,-0.0262444317341,0.0180378817022,0.290682405233,0.0168481703054,-0.0178941746772,0.0137558761758,0.936,0.836,3.248,1.068,0.899,0.288,3.0,2.0,0.0,-0.468288298845,-0.302744322997,9.25178503275,-0.406564197413,0.391492436698,-0.0239089531275,-0.367836773396,0.186393857002,-0.0629546567798,0.0266713642546,0.0201496240226,0.046108340603
1555426873497993499,-0.0261729713529,0.0172858592123,0.295580029488,0.00247705372348,-0.0335653630195,0.012775918199,0.936,0.836,3.248,1.068,0.899,0.298,3.0,0.0,0.0,-0.380398325287,0.043921643598,9.64192003191,-0.36632812769,0.134243209424,-0.0344096142133,-0.370643287897,0.186215981841,-0.0616228803992,0.0358281385014,0.0213282784273,0.0449237154152
1555426873518386664,-0.027400193736,0.0123271057382,0.303021103144,-0.00398017903335,-0.0282987206149,0.0124899009397,0.937,0.833,3.288,1.068,0.899,0.298,1.0,-1.0,0.0,0.0122614170774,0.785673191026,9.45616510034,-0.252823036897,-0.311490378473,-0.0213915564146,-0.373269915581,0.186004415154,-0.0602117069066,0.0367783665997,0.0249935883066,0.044435833667
1555426873537639339,-0.0273528005928,0.00829297211021,0.306425571442,-0.0058747258254,-0.0225516127407,0.0128884877296,0.937,0.833,3.288,1.085,0.892,0.303,4.0,0.0,0.0,0.0786887950078,0.649533565342,9.2208655411,-0.357289758424,-0.160462962463,-0.0218312651165,-0.376809328794,0.185609921813,-0.058249399066,0.0408415063568,0.0184534961783,0.0414138004786
1555426873557541500,-0.0261074230075,0.0080172996968,0.312973797321,-0.0203733196583,-0.0192469980931,0.0122634667083,0.937,0.833,3.288,1.085,0.892,0.317,6.0,0.0,0.0,-0.101836277246,0.155968301408,9.46759231389,-0.304036856372,0.0663602693744,-0.00690277622624,-0.378739625216,0.185281708837,-0.0568595007062,0.0440786455223,0.0184434169525,0.0452678288824
1555426873578125126,-0.0258177220821,0.00471496628597,0.316523104906,-0.0255127836373,-0.0206585358887,0.0122401276384,0.937,0.833,3.288,1.085,0.892,0.326,4.0,0.0,0.0,-0.105111704729,0.299595195372,9.36276226223,-0.215886773567,0.0615125963047,-0.0063852798138,-0.381494671106,0.184685632586,-0.0553306676447,0.0501659473058,0.0120817476495,0.0465484713064
1555426873598372289,-0.0251872912049,0.000545356597286,0.325872331858,-0.0286930453067,-0.0196326300608,0.011946646246,0.944,0.832,3.157,1.085,0.892,0.326,3.0,0.0,0.0,0.287359713893,-0.452516530976,8.63551247656,-0.140423940261,-0.130666192929,-0.00505410706531,-0.383071124554,0.184319972992,-0.054360806942,0.0513380847078,0.00821410023357,0.0453271592807
1555426873618261105,-0.022552439943,-0.000935232033953,0.330078929663,-0.0321999811345,-0.0197116302378,0.0125871864224,0.944,0.832,3.157,1.092,0.874,0.343,4.0,-3.0,0.0,0.0879817108903,0.0526906900713,8.05770056605,-0.20300504673,-0.223627234631,-0.0102469804279,-0.384579122066,0.183863937855,-0.0535560846329,0.0527191697015,0.00635698070967,0.0444294191625
1555426873637552938,-0.0227378793061,-0.0024041312281,0.336405366659,-0.0420405236487,-0.00785053180007,0.0115662386514,0.944,0.832,3.157,1.092,0.874,0.343,2.0,-1.0,0.0,-0.141294786818,-0.654011143818,8.71399614394,-0.0961795384584,-0.206135459433,0.000660520191412,-0.386454999447,0.183196976781,-0.0525788702071,0.0530630742671,0.00640068800694,0.0455744228448
1555426873657561698,-0.0246274005622,-0.00604456523433,0.342660546303,-0.0418034232491,-0.000425838352988,0.010945818865,0.939,0.835,3.412,1.092,0.874,0.345,2.0,0.0,0.0,-0.210847490095,0.057954166308,9.89594588399,0.00869661443734,-0.107083784963,-0.00530792920373,-0.387508839369,0.182800680399,-0.0520507954061,0.0540361080787,0.00448879324399,0.0444441558722
1555426873677563835,-0.0225344449282,-0.00663179066032,0.344516098499,-0.0421213880385,-5.15898751476e-05,0.0123027327299,0.939,0.835,3.412,1.103,0.869,0.347,0.0,0.0,0.0,-0.249968286417,-0.457674396448,8.97783186972,-0.0224843741649,0.010077667881,-0.00635526151504,-0.389016807079,0.182135790586,-0.0514056645334,0.0571105609913,0.00663504707155,0.0467013475196
1555426873697615984,-0.021510001272,-0.00880502443761,0.346933811903,-0.0422627977312,-4.54828707981e-05,0.0121463313129,0.939,0.835,3.412,1.103,0.869,0.356,2.0,0.0,0.0,-0.431379175298,-0.186420965977,9.31789774597,-0.0849860476926,-0.0168205462509,-0.0250998480268,-0.389933288097,0.181673839688,-0.0511816032231,0.0573194623286,0.00245924540992,0.0462153089506
1555426873717596034,-0.0207327716053,-0.0105921784416,0.351186007261,-0.0461529894876,-0.000519333447434,0.0125857695375,0.939,0.835,3.412,1.103,0.869,0.356,0.0,-1.0,0.0,-0.631230976358,0.306271966472,10.1651937926,-0.0388079454281,-0.144489372179,0.0104544188305,-0.390742629766,0.181252062321,-0.051124677062,0.0562600116952,-0.00281896372165,0.0447861175635
1555426873737620674,-0.019838578999,-0.0106029985473,0.35585924983,-0.0467244206338,0.0048553156138,0.0116552017557,0.93,0.837,3.176,1.103,0.869,0.356,0.0,0.0,0.0,-0.854981699958,0.29751552349,9.96680478215,0.0881664778901,-0.174825822985,-0.00917773477406,-0.391923904419,0.180525004864,-0.0511242002249,0.0507633238842,-0.00652613124433,0.0435669831571
1555426873757586855,-0.0196327175945,-0.0114943999797,0.357784807682,-0.0412750479277,0.011576577126,0.0114201434596,0.93,0.837,3.176,1.11,0.863,0.357,-1.0,-1.0,0.0,0.0344048296055,0.00355454923294,9.51218318045,0.15643043723,-0.0706172117024,-0.0129642921133,-0.392560720444,0.180146530271,-0.0512561388314,0.0474637973201,-0.00657273946683,0.0425059572194
1555426873777582505,-0.0187444500625,-0.0119663830847,0.360063612461,-0.0379562415444,0.0110704350384,0.0113389118449,0.93,0.837,3.176,1.11,0.863,0.358,-1.0,1.0,0.0,-0.079949938925,-0.704957349077,8.9256150645,0.156157230191,0.145826978126,-0.0271700895896,-0.393363028765,0.179534465075,-0.0517316870391,0.0449526752654,-0.00166830909041,0.043383081028
1555426873798051081,-0.0166551303118,-0.0122242914513,0.360935300589,-0.0348012237293,0.00658955103135,0.0117171889106,0.93,0.837,3.176,1.11,0.863,0.358,-1.0,0.0,0.0,-0.0805812920351,-0.88892069377,8.96656662405,0.103931933813,0.0653944240708,-0.0444014991789,-0.393778949976,0.179201632738,-0.0520840510726,0.0427446803272,-0.000771777806521,0.0427261392136
1555426873818089846,-0.0185995269567,-0.0114290537313,0.360320776701,-0.0333813219434,0.0083153241505,0.00950131924948,0.93,0.837,3.176,1.11,0.863,0.358,-1.0,0.0,0.0,0.196269778479,-0.455081594847,9.81572091579,0.153609666937,-0.116822174443,-0.0394818625031,-0.394104361534,0.178821220994,-0.0526253543794,0.0402395128279,-0.00275904424199,0.0392746331591
1555426873838378359,-0.0185995269567,-0.0114290537313,0.360320776701,-0.03209411632,0.00736654544428,0.00985165392969,0.926,0.839,3.471,1.11,0.863,0.358,-2.0,-3.0,0.0,-0.156191098597,0.297383394688,9.86941004992,0.205980380234,-0.105592731003,-0.0222824607812,-0.394608765841,0.178285762668,-0.053361851722,0.0359703728427,-0.00637811379374,0.0398226107541
1555426873858151051,-0.0175243355334,-0.0105389449745,0.360147148371,-0.0265381443495,0.0105715625484,0.00864810173317,0.926,0.839,3.471,1.107,0.863,0.358,-1.0,0.0,0.0,0.529222900607,-0.0252194773662,9.65715027452,0.256245132319,-0.0356694308894,-0.0283208518996,-0.39503672719,0.178008332849,-0.0540321916342,0.0318530349615,-0.00518538710067,0.0396548058662
1555426873878161820,-0.0128891514614,-0.00839253980666,0.359024554491,-0.0233762751364,0.00615847523658,0.0105237868949,0.926,0.839,3.471,1.107,0.863,0.356,-3.0,-4.0,0.0,-0.147781550819,-0.260598670654,10.5311452925,0.243286956114,0.0507843639425,-0.0321481181529,-0.395553916693,0.177646100521,-0.0547267608345,0.0279408843491,-0.00483583309693,0.0395966452719
1555426873897945568,-0.0106403725222,-0.00905205775052,0.360546767712,-0.0162801159643,0.00393491439742,0.0102188008546,0.926,0.839,3.471,1.107,0.863,0.356,-1.0,-2.0,0.0,-0.645740038007,0.427220416255,10.84691131,0.255269583122,-0.0882845807621,-0.0449964701724,-0.396624863148,0.177247494459,-0.0556505918503,0.0208912570165,-0.00422897174943,0.0417266949598
1555426873918245382,-0.0109364166856,-0.00762031553313,0.361325562,-0.0120593822242,0.00613428676389,0.00888992612282,0.926,0.839,3.471,1.107,0.863,0.363,-2.0,-1.0,0.0,0.0165656598704,-0.144323123759,10.2386862767,0.204725665176,-0.295407315623,-0.045467953715,-0.397522240877,0.17695581913,-0.0562809258699,0.0165860242385,-0.00912211610095,0.040617103988
1555426873938449802,-0.0131280152127,-0.00587631994858,0.361328870058,-0.00885644519449,0.0148069145462,0.00709079227831,0.926,0.836,3.266,1.107,0.863,0.363,-2.0,0.0,0.0,-0.198453695253,0.091841174718,10.6856123579,0.186953325957,-0.284737860058,-0.0352052918457,-0.399020671844,0.176535874605,-0.0577158257365,0.0120865589824,-0.0189598379816,0.033843139745
1555426873957816943,-0.0139719815925,-0.00597956357524,0.362378358841,-0.0035182657057,0.0224076896897,0.00579439354769,0.926,0.836,3.266,1.105,0.866,0.359,-1.0,0.0,0.0,0.0603691257583,-0.0295074278978,10.5100882995,0.190787645426,-0.196275854511,-0.0345041626738,-0.400236934423,0.176345452666,-0.0584490783513,0.0108337280528,-0.0214619137991,0.0352886864215
1555426873978035792,-0.0125228539109,-0.00542958499864,0.365286290646,0.0013137190305,0.0237572257662,0.0053487577519,0.926,0.836,3.266,1.105,0.866,0.367,-1.0,0.0,0.0,-0.785280258134,0.332509154007,10.1706667864,0.199977165728,0.197465904689,-0.0170287482318,-0.402384370565,0.17617854476,-0.0596257373691,0.00448090086869,-0.0180711776737,0.0357612258023
1555426873997815489,-0.0103881601244,-0.00438287714496,0.368215382099,0.00531179546865,0.0186147490862,0.00521321949717,0.926,0.836,3.266,1.105,0.866,0.367,-1.0,0.0,0.0,-0.00670201805304,0.611889227517,9.57119854331,0.134533493983,0.226719031498,0.00354483281817,-0.40389084816,0.176111802459,-0.0603124909103,0.00134116546697,-0.0116841052366,0.0360457301631
1555426874017844518,-0.010449660942,-0.00388569338247,0.370059847832,0.00865675388582,0.0143715345214,0.005068907375,0.926,0.836,3.266,1.105,0.866,0.37,-1.0,1.0,0.0,0.670072933584,-0.376832656637,9.71321220875,0.116452527684,0.131764572108,0.00157761072664,-0.405541598797,0.176104575396,-0.0609840229154,-0.00164517449099,-0.0123321022982,0.0323651288004
1555426874037700830,-0.0102197844535,-0.00321472482756,0.370025426149,0.0111102264102,0.0124581240184,0.0051031513614,0.925,0.842,3.433,1.105,0.866,0.366,0.0,0.0,0.0,-0.799232664853,0.8304690025,9.98977498412,0.084284363002,-0.0762271189267,0.00202043550909,-0.407634407282,0.176183998585,-0.0621866546571,-0.00258962620921,-0.0151268425003,0.0325104703332
1555426874057815719,-0.0119902687147,-0.00134822004475,0.371721357107,0.0118293922566,0.0155812057466,0.00532565586974,0.925,0.842,3.433,1.1,0.87,0.366,0.0,1.0,0.0,0.185599651448,-0.0710147812776,9.2913432008,0.079196077489,-0.0760748693362,0.00709023363866,-0.409054905176,0.176245525479,-0.0627310201526,-0.00221602332932,-0.01627399684,0.0320096420345
1555426874077786180,-0.0117672290653,-0.00128832529299,0.371907711029,0.0145296493081,0.0169477974973,0.00525175783083,0.925,0.842,3.433,1.1,0.87,0.368,0.0,0.0,0.0,0.386870133206,-0.309384987541,8.97091285944,0.0977744473786,0.0639825658636,0.00458924969629,-0.411268472672,0.176373720169,-0.06328663975,-0.00638849965339,-0.016015452586,0.0349002954265
1555426874097802072,-0.0117672290653,-0.00128832529299,0.371907711029,0.0123686449266,0.0160342614629,0.00603476204127,0.925,0.842,3.433,1.1,0.87,0.368,-2.0,0.0,0.0,-0.0265078610857,-0.300406204183,8.82507511497,0.0747266523567,0.144667570945,-0.00375371515349,-0.412526935339,0.176531210542,-0.0636476352811,-0.00942816484587,-0.0142691976065,0.0341959579383
1555426874117609993,-0.0110677443445,0.00187247886788,0.374497175217,0.0161679303034,0.0130124121053,0.00563768940408,0.925,0.842,3.433,1.1,0.87,0.374,0.0,2.0,0.0,-0.173196811695,0.216068012137,9.32022610724,0.158986356151,0.184003026167,-0.0109436935377,-0.413760215044,0.176719591022,-0.0640024915338,-0.00907471899907,-0.00807628423165,0.0342591561977
1555426874137690077,-0.0102824727073,0.00225245417096,0.374596238136,0.0187090894872,0.00756325630119,0.00530676615135,0.927,0.839,3.349,1.1,0.87,0.373,-2.0,0.0,0.0,0.0286340594455,0.447609986141,9.41152043939,0.10796569908,0.0452807584575,-0.0058861722166,-0.415393769741,0.177053555846,-0.064547277987,-0.0124349208654,-0.00550014683903,0.0336346746819
1555426874157750759,-0.0109521755949,0.0030634040013,0.375350117683,0.0211166849006,0.0063805797506,0.00529866483612,0.927,0.839,3.349,1.091,0.873,0.373,-2.0,0.0,0.0,0.477232419178,-0.108583525568,9.07349699557,-0.0117072821594,-0.037627457663,-0.0129496821781,-0.416466057301,0.177295029163,-0.0646891593933,-0.0141190039633,-0.0065380421073,0.0348309866688
1555426874177724811,-0.0124711953104,0.00311998859979,0.377234429121,0.0224869332963,0.00868160138685,0.00542033176664,0.927,0.839,3.349,1.091,0.873,0.379,0.0,1.0,0.0,-0.196717455927,-0.309605683386,10.0497323334,-0.0666818377536,0.00443361029697,0.0193692413484,-0.418037682772,0.177599713206,-0.0648427307606,-0.0119745015913,-0.00844893306354,0.0344383119672
1555426874197748664,-0.0112223895267,0.00390484556556,0.380413234234,0.0207188294397,0.00689419949515,0.00508795157754,0.927,0.839,3.349,1.091,0.873,0.385,0.0,-1.0,0.0,-0.579519041665,0.963859413564,10.6311642551,-0.0238669230359,0.090054659103,0.00742555058704,-0.419137477875,0.177840292454,-0.0648942813277,-0.0109718758602,-0.00569301672003,0.0347972985652
1555426874217803198,-0.0112053351477,0.0031499187462,0.381519854069,0.0209572801452,0.00505554267558,0.00513899376461,0.927,0.839,3.349,1.091,0.873,0.385,0.0,0.0,0.0,0.477675236128,0.49732337907,9.2959227401,-0.000477899186165,0.12088729011,0.00660138753403,-0.420150279999,0.178119257092,-0.064922593534,-0.0100923249469,-0.00253013897396,0.0360572706093
1555426874237896008,-0.011096724309,0.0031793389935,0.381773799658,0.0209280290657,0.0026406459356,0.00526474178144,0.926,0.837,3.392,1.091,0.873,0.385,0.0,1.0,0.0,0.123058143463,-0.275161362235,9.15058902562,-0.000511256839265,0.106777779431,0.00130929035485,-0.42154994607,0.178389117122,-0.0647138357162,-0.00841219265074,-0.00124485108609,0.0361983204027
1555426874257672294,-0.0112679218873,0.00344538572244,0.38191896677,0.0204101690693,0.000873656172366,0.00537811130068,0.926,0.837,3.392,1.096,0.879,0.38,0.0,1.0,0.0,-0.942643449381,0.243725780714,10.6467353904,-0.0771487807234,-0.0164626392466,-0.00527712131932,-0.422546595335,0.178629338741,-0.0645891726017,-0.00910201810643,-0.000151271796934,0.0351644824491
1555426874277774725,-0.0113455401734,0.00444462709129,0.382905334234,0.0177139369281,0.000174257681389,0.00533726714806,0.926,0.837,3.392,1.096,0.879,0.38,0.0,0.0,0.0,0.581526719704,0.149976568166,9.43628515184,-0.0881102352568,-0.0641466165868,-0.0132520154602,-0.423980385065,0.179013267159,-0.0642130598426,-0.00738710283433,-0.00150845015285,0.0366847294256
1555426874297871612,-0.0120497047901,0.005321261473,0.38261115551,0.0148636409177,0.00200302353302,0.0054350675779,0.926,0.837,3.392,1.096,0.879,0.38,0.0,0.0,0.0,0.153347195629,-0.387746301927,8.97787806273,-0.0700832395814,0.0121997349748,-0.00399358742526,-0.424834817648,0.17919254303,-0.0639592036605,-0.00725865708151,-0.00319825505191,0.0366144337941
1555426874317737388,-0.0119980080053,0.00380230299197,0.383142262697,0.0153125083971,0.00252263174898,0.00503603762134,0.926,0.837,3.392,1.096,0.879,0.38,0.0,0.0,0.0,-0.844034542814,0.279459029194,10.1529321814,-0.00823764411075,0.107072599686,-0.0234027611057,-0.425623089075,0.179486840963,-0.0636248812079,-0.0068039909901,-0.00318370246282,0.0349612147784
1555426874337683149,-0.0130018787459,0.00284036435187,0.385764330626,0.0158012130213,0.00167242368271,0.00498821983576,0.928,0.841,3.247,1.096,0.879,0.389,0.0,0.0,0.0,-0.645739087835,0.617907072231,9.88260955453,-0.0553404832907,0.0620593391153,-0.054246261139,-0.426712840796,0.179801717401,-0.0631609931588,-0.00353423152982,0.000594003365448,0.0344710207577
1555426874357996229,-0.0130018787459,0.00284036435187,0.385764330626,0.0162743246292,-0.001246960682,0.00372975034472,0.928,0.841,3.247,1.098,0.878,0.389,1.0,0.0,0.0,0.273700143043,-0.103704380421,9.56343461037,-0.123174396209,0.0709572474393,-0.046759174886,-0.427419751883,0.179983749986,-0.0627633333206,-0.00127318159999,0.00228590113837,0.0347869366655
1555426874378397630,-0.0118310721591,0.00146999058779,0.386950701475,0.0126529893879,-0.00322730339319,0.00296663687875,0.928,0.841,3.247,1.098,0.878,0.385,0.0,0.0,0.0,0.301901593041,-0.254635150228,8.70311213672,-0.228964841956,-0.00234866517203,-0.0316747246244,-0.42837485671,0.180214777589,-0.0620640814304,0.00189881708619,0.00289305712506,0.033378971743
1555426874398514808,-0.0131082730368,0.00164135429077,0.38915169239,0.00756140613244,-0.0017070724748,0.0023640633926,0.928,0.841,3.247,1.098,0.878,0.392,0.0,-1.0,0.0,-1.01462735184,0.171563775726,10.1511686611,-0.239791507249,-0.00568912482352,-0.026903704821,-0.428922742605,0.180345609784,-0.0615439116955,0.0077799430166,0.00200429462533,0.032983406575
1555426874418180895,-0.0100434720516,0.00100891117472,0.389772027731,0.0030349004074,-0.00575051120679,0.00107905611248,0.928,0.841,3.247,1.098,0.878,0.392,2.0,-3.0,0.0,0.0750033772085,0.897365242615,9.43042273343,-0.115301559395,-0.00331075344192,-0.0353358325121,-0.429491132498,0.180467009544,-0.0611449554563,0.00866658898789,0.00207052920603,0.0322343732535
1555426874437683911,-0.0121867312118,-0.00188075297046,0.389824569225,0.00289547222099,-0.00273937847182,0.0010887344534,0.924,0.835,3.244,1.098,0.878,0.388,4.0,0.0,0.0,0.00955651167606,0.206115137469,9.18560039878,-0.0381648710874,-0.0637517613433,-0.0373757931012,-0.430125623941,0.180611759424,-0.0605130232871,0.00939954383397,7.69889038731e-05,0.0309974766937
1555426874457849993,-0.0108939744532,-0.00351670011878,0.39240860939,0.00281430146365,-0.0032979843127,0.00022959494717,0.924,0.835,3.244,1.097,0.874,0.388,2.0,0.0,0.0,-0.519577004761,0.339468436986,9.59646260798,-0.106823386065,-0.0908449188669,-0.0435317898295,-0.43049544096,0.180743426085,-0.0601672418416,0.0100765495419,-0.00120968360767,0.0305885307174
1555426874477956019,-0.0108939744532,-0.00351670011878,0.39240860939,-0.00159481191248,0.000715925515394,-0.000581195051519,0.924,0.835,3.244,1.097,0.874,0.396,0.0,-1.0,0.0,-0.440516582653,0.875044081584,9.77239480197,-0.206039086291,-0.0981736718707,-0.0581103206272,-0.431034296751,0.180911555886,-0.0594418570399,0.0182183711372,0.000920303731394,0.0307755288134
1555426874497769992,-0.0133237522095,-0.00294267269783,0.394896060228,-0.00614498830222,0.00266432180179,-0.00157809823597,0.924,0.835,3.244,1.097,0.874,0.396,3.0,0.0,0.0,0.393314093761,-0.325756314285,9.64646858096,-0.275877473177,-0.00431314334938,-0.0513763139126,-0.431327134371,0.181055158377,-0.0590296946466,0.0231945845717,-0.000240436241521,0.0283932945283
1555426874517790956,-0.0143884485587,-0.00324307987466,0.395660191774,-0.0125452790859,0.00446459555207,-0.00257471735423,0.924,0.835,3.244,1.097,0.874,0.396,3.0,1.0,0.0,0.00118272192027,-0.171210932806,9.35684955776,-0.0965214217633,0.117513739122,-0.0507133241204,-0.431463330984,0.181202739477,-0.0588661506772,0.0267417714401,0.00188077545571,0.0287167954791
1555426874537664055,-0.0131871225312,-0.00242375722155,0.396962314844,-0.0174637828779,0.00139853394928,-0.00374975396145,0.929,0.834,3.278,1.097,0.874,0.396,0.0,0.0,0.0,-0.0484518013336,0.0893522708304,9.49893806756,0.102663278771,0.143173504284,-0.0493491905923,-0.4315559268,0.181382536888,-0.0585361607373,0.0260163144245,0.00406272832585,0.0257625012927
1555426874557829834,-0.0135824391618,-0.00433906400576,0.398072272539,-0.0145629086531,-0.0012323563383,-0.00460654671951,0.929,0.834,3.278,1.097,0.871,0.399,0.0,1.0,0.0,-0.58467069447,0.230975835621,9.49504148304,0.105386968519,0.0754920698211,-0.0316809684888,-0.431358993053,0.18141245842,-0.0584281943738,0.0237292172393,0.00652700756681,0.0267231733614
1555426874577804176,-0.0139741934836,-0.00435215560719,0.398566931486,-0.0128237604316,-0.00299621019034,-0.00535578600046,0.929,0.834,3.278,1.097,0.871,0.399,-1.0,1.0,0.0,0.0551875653584,0.164574507494,8.90404936373,-0.0484567694722,0.00985940726547,-0.0224691941467,-0.430969506502,0.181484654546,-0.0583027079701,0.0235448458146,0.00658517359197,0.0261179195337
1555426874597817421,-0.014110009186,-0.00378751195967,0.397500604391,-0.0135676541448,-0.00343542969245,-0.0059308618282,0.929,0.834,3.278,1.097,0.871,0.395,0.0,0.0,0.0,-0.203302937374,0.453830838874,9.54632741153,-0.133296955,-0.0367688212381,-0.0424854130312,-0.430597215891,0.181551501155,-0.0582225099206,0.0243626199004,0.00368748302863,0.0230475592315
1555426874617705240,-0.014110009186,-0.00378751195967,0.397500604391,-0.0167102445684,-0.00290397249024,-0.00671740565021,0.929,0.834,3.278,1.097,0.871,0.395,1.0,0.0,0.0,-0.729211453423,0.598746696711,10.2070961094,-0.0864940793046,-0.0332476811909,-0.0380900903563,-0.430064350367,0.181543514132,-0.0583217479289,0.0252202739062,0.00408870595612,0.0242664453678
1555426874637672250,-0.0152769312263,-0.0039207409136,0.394906848669,-0.0177141928412,-0.0013962287805,-0.00742489467959,0.932,0.834,3.377,1.097,0.871,0.391,1.0,1.0,0.0,0.377393294983,-0.371093504839,8.84139410913,0.113437346632,0.00670775949349,-0.0288719722813,-0.429184943438,0.181462660432,-0.0584253445268,0.0250638373356,0.00345824066135,0.0229137805495
1555426874657755794,-0.0142691610381,-0.00526839401573,0.395979374647,-0.0148822570379,-0.00282208002664,-0.0075896710101,0.932,0.834,3.377,1.099,0.868,0.399,0.0,0.0,0.0,-0.353096907958,0.443202464618,10.111031034,0.183247254339,0.036419060802,-0.032673020962,-0.428429782391,0.181456968188,-0.0585878044367,0.0223071923466,0.00350190592107,0.0218015311411
1555426874678103572,-0.0137298535556,-0.00388685334474,0.395665943623,-0.0134443965997,-0.00429738986728,-0.00812061742634,0.932,0.834,3.377,1.099,0.868,0.399,-2.0,0.0,0.0,0.28845005516,-0.56424582202,9.98609942436,0.0624381529744,-0.00445009016666,-0.0475985158766,-0.427494317293,0.181414052844,-0.0587724894285,0.0188623142835,0.00303606810688,0.0180898821208
1555426874697905867,-0.0139822326601,-0.00358853675425,0.392941951752,-0.0114980471633,-0.0041610914153,-0.00898650212274,0.932,0.834,3.377,1.099,0.868,0.389,0.0,0.0,0.0,-0.584067809992,0.275836861823,9.31971330643,0.00932662940584,-0.0381599317559,-0.0460747882589,-0.426649421453,0.181301549077,-0.0591123998165,0.0220848918792,0.00677867363479,0.0208665697914
1555426874717763372,-0.0131584769115,-0.00382203073241,0.392296105623,-0.0105071358963,-0.00464508557332,-0.00976775707327,0.932,0.834,3.377,1.099,0.868,0.389,0.0,-1.0,0.0,0.198562398646,-0.0574374871468,10.2320157731,0.0438370047351,-0.08418491058,-0.0492681223042,-0.425929129124,0.181173950434,-0.0594831816852,0.0206897243747,0.00494564230707,0.0192705964666
1555426874737789863,-0.0142733342946,-0.00433335313573,0.390911251307,-0.00900444933178,-0.00181828506763,-0.0107442768675,0.928,0.833,3.346,1.099,0.868,0.39,0.0,0.0,0.0,-0.0295605827426,-0.0465168389026,9.94375505805,0.106111281756,-0.117224719564,-0.0367225654589,-0.424909710884,0.181004747748,-0.0599826723337,0.0168924989283,-0.00101439832881,0.0173721502509
1555426874757883728,-0.0144120566547,-0.00327757536434,0.389466524124,-0.00849402538054,0.000616047286747,-0.0116764248609,0.928,0.833,3.346,1.098,0.869,0.388,-1.0,-1.0,0.0,0.511207081005,-0.206828059237,9.41843886495,0.103777811687,-0.0312438397242,-0.0226995326139,-0.424342393875,0.180912315845,-0.0603212043643,0.0156663024121,-0.00327006691396,0.0180037977356
1555426874777845647,-0.0147758778185,-0.00321661122143,0.388793200254,-0.00627713310715,0.0024999514473,-0.0122438394192,0.928,0.833,3.346,1.098,0.869,0.388,-1.0,0.0,0.0,-0.429966853447,0.213610463943,10.3870851016,0.0583232944518,0.0519223326763,-0.0211913553602,-0.423716038465,0.180804491043,-0.0608874261379,0.0134539907742,-0.00179312776575,0.0176351593713
1555426874797683270,-0.0143101876602,-0.00284482887946,0.385043621063,-0.00517503330415,0.00113171186568,-0.0125853388544,0.928,0.833,3.346,1.098,0.869,0.38,-1.0,0.0,0.0,-0.0132741182833,0.039205786516,10.3361324644,0.0611407982106,0.0305749160762,-0.0224945669979,-0.423403084278,0.180697247386,-0.061259906739,0.0133036261577,-0.00060486063705,0.0175865524884
1555426874817648464,-0.0138789769262,-0.0025234776549,0.384272903204,-0.00413720670942,-0.00013958263805,-0.0130967625313,0.928,0.833,3.346,1.098,0.869,0.38,0.0,0.0,0.0,0.0933412048034,-0.337284173034,10.1512540305,0.101178266857,-0.021110919573,-0.0362251826746,-0.423164397478,0.18060682714,-0.0616956204176,0.0122687091353,-0.00137835993518,0.016978453783
1555426874838291948,-0.0142072392628,-0.00137785763945,0.383306592703,-0.00340921628107,0.00026832245239,-0.0136984642483,0.93,0.832,3.412,1.098,0.869,0.383,-1.0,0.0,0.0,-0.15114740001,-0.153567050938,10.699449209,0.122437316444,-0.0616377191029,-0.0400575463846,-0.42326888442,0.180484399199,-0.0622624009848,0.0100674059248,-0.00282299911783,0.0150167265328
1555426874858090032,-0.0139151010662,-0.00164222158492,0.383958131075,-0.000132664335907,0.000910430616931,-0.0143630612999,0.93,0.832,3.412,1.104,0.869,0.386,0.0,-1.0,0.0,0.171231562514,-0.139898690991,10.4331354332,0.129746054127,-0.0663407450746,-0.0412257628028,-0.423452347517,0.180298164487,-0.0626192316413,0.00545758031189,-0.00128013831666,0.0159459597881
1555426874877867596,-0.0144854467362,-8.76070844242e-05,0.383964180946,0.000535710977878,0.00318142628222,-0.0150971127604,0.93,0.832,3.412,1.104,0.869,0.386,0.0,0.0,0.0,0.353619502857,0.091849132413,10.3384619951,0.139701507881,-0.0102029363207,-0.0131444705655,-0.424038648605,0.180261939764,-0.0633180588484,0.00345554989157,-0.00287445462609,0.0150579809406
1555426874897930905,-0.0137167237699,-0.000323851185385,0.383452355862,0.00432207872297,0.00274444393946,-0.0154443213472,0.93,0.832,3.412,1.104,0.869,0.382,0.0,0.0,0.0,-0.0991278195474,-0.0762549828552,10.2851388967,0.0862388402812,0.0363853634918,0.00160909623471,-0.424618393183,0.180294305086,-0.0637062564492,0.00180074649721,-0.00322869457434,0.0126474574368
1555426874917825092,-0.0133528765291,-0.000305918452796,0.383762896061,0.00690952099379,0.001872743461,-0.0154820446079,0.93,0.832,3.412,1.104,0.869,0.382,0.0,0.0,0.0,-0.33014578253,0.42390288882,9.99561167479,0.120692280139,0.0450010017074,-0.0141499532769,-0.425190299749,0.180162876844,-0.064208842814,-0.00138110376596,-0.00272714259551,0.0131044530915
1555426874937756242,-0.0130007136613,0.00138713733759,0.386478036642,0.00732940631049,0.000625395333274,-0.0154782485631,0.929,0.834,3.342,1.104,0.869,0.39,-1.0,0.0,0.0,0.652651519999,-0.653502289876,9.23838321447,0.0564684152361,-0.0252586847798,0.0123637773756,-0.426194787025,0.180176422,-0.0647681728005,-0.00314651867317,-0.00351752949289,0.0140119268867
1555426874957937775,-0.0133195407689,0.00113678537309,0.388142079115,0.00972281831047,0.00154089343341,-0.0152516364408,0.929,0.834,3.342,1.096,0.87,0.39,0.0,0.0,0.0,-0.837029505372,0.316947337724,10.1467914355,0.00523004890675,-0.0332115953582,0.0280534393173,-0.426849752665,0.180114939809,-0.0651196911931,-0.000133071072317,-0.00573771480461,0.0149800676203
1555426874977804782,-0.0135039202869,0.00198817090131,0.388929843903,0.00907045411492,0.00257364636816,-0.0148045998847,0.929,0.834,3.342,1.096,0.87,0.387,-1.0,0.0,0.0,-0.0871740094107,0.417667418048,9.97031311154,0.0131053907571,-0.0172640561991,0.0326834322573,-0.427833735943,0.180029049516,-0.0655523464084,-0.000727935228764,-0.00551971401074,0.01619628668
1555426874997698794,-0.0135553227738,0.00360783329234,0.389014661312,0.00792720379173,0.00306354551373,-0.0142074817176,0.929,0.834,3.342,1.096,0.87,0.387,0.0,0.0,0.0,0.0270606376673,0.551190597452,9.2617019105,0.0513333496341,0.0333250460206,0.0630238112265,-0.42842489481,0.180035680532,-0.0658390149474,-0.00265193035136,-0.00356245072726,0.0172821324666
1555426875017962179,-0.0134779307991,0.00415999535471,0.388241171837,0.00843025723659,0.00253858158719,-0.013154437654,0.929,0.834,3.342,1.096,0.87,0.387,-1.0,0.0,0.0,0.199806320686,-0.54824780345,9.88043906808,0.100432590074,0.0283480910442,0.0410688984534,-0.428924232721,0.179965570569,-0.0660411864519,-0.00517593933443,-0.00302090041649,0.017713134209
1555426875038881061,-0.0130690047517,0.00468425545841,0.388700664043,0.0107388142663,0.00133081943753,-0.0121501315189,0.931,0.839,3.389,1.093,0.879,0.391,-1.0,0.0,0.0,-1.04680158287,0.483437740244,10.3413598752,0.117057872522,0.0588708362107,0.040814757984,-0.42944341898,0.180016353726,-0.0662976875901,-0.00753023584616,-0.00236558397271,0.0177504370849
1555426875058565739,-0.0122914100066,0.0036906239111,0.389741510153,0.0154895909245,-0.00104171483592,-0.0111901212429,0.931,0.839,3.389,1.093,0.879,0.391,0.0,0.0,0.0,0.876500476822,0.237696150206,9.05020051897,0.0231053733969,-0.0335818891824,0.0607437375368,-0.429603904486,0.179951608181,-0.0664839819074,-0.00819169587313,-0.00176326008749,0.0197992617357
1555426875077848981,-0.0127948364243,0.00343637424521,0.390059888363,0.017139028068,-8.008605235e-05,-0.0100358583324,0.931,0.839,3.389,1.093,0.879,0.391,0.0,0.0,0.0,-0.00919650705939,0.186633676719,9.03529888988,-0.0878174623069,-0.0541331017598,0.0429834491222,-0.429747343063,0.179957970977,-0.0666627511382,-0.00645359507131,-0.00289497810222,0.0210065015598
1555426875097962352,-0.0133443586528,0.00511056743562,0.390423774719,0.0139124762897,0.00209554185332,-0.00906130678075,0.931,0.839,3.389,1.093,0.879,0.391,0.0,0.0,0.0,-1.01844017498,0.690731365755,9.81220790863,-0.119104137313,-0.0528692736973,0.0456051938961,-0.429696172476,0.179893448949,-0.0666747540236,-0.0024681062044,-0.00369119283896,0.0240239587702
1555426875117756254,-0.01281494461,0.00619137240574,0.390367001295,0.0103624430253,0.00217231449375,-0.00826316260354,0.928,0.836,3.309,1.093,0.879,0.391,0.0,-1.0,0.0,0.535330682807,-0.606244617887,9.43055371106,-0.00268969257236,0.00289327771384,0.0481171290482,-0.429637640715,0.179930329323,-0.0667630210519,-0.00402718632592,-0.0041868795569,0.0225006311824
1555426875137633925,-0.0128762340173,0.00621188431978,0.390541136265,0.0101481116127,0.00278901781798,-0.00721855639131,0.928,0.836,3.309,1.093,0.879,0.391,0.0,0.0,0.0,-0.361289916895,0.637706256062,9.01466582,0.0493881809351,0.0294430934188,0.0472151496765,-0.429371744394,0.179972484708,-0.0667464286089,-0.00616824006814,-0.00385290022575,0.0229910675646
1555426875158064526,-0.0125065017492,0.00535508384928,0.389495432377,0.0131269217904,0.00170486912512,-0.00641864995047,0.928,0.836,3.309,1.099,0.877,0.388,0.0,0.0,0.0,-0.0982642040681,0.275110820364,9.17355045676,0.0758373070446,0.0044317845752,0.00320283612082,-0.429154664278,0.180006161332,-0.0667460784316,-0.00607137844118,-0.00259630885454,0.023789248097
1555426875177734027,-0.0125705506653,0.00469822064042,0.38916349411,0.0157587366422,0.00151849219149,-0.0061502386827,0.928,0.836,3.309,1.099,0.877,0.388,0.0,0.0,0.0,-0.667561993003,0.692151215896,10.0141695678,-0.0457806046658,-0.00993865191236,0.0218625863877,-0.428794890642,0.180034220219,-0.066619053483,-0.00537882550951,-0.0033515885293,0.0243477680522
1555426875197764501,-0.0125124845654,0.00531727448106,0.389852762222,0.0144620934417,0.00166811542148,-0.00586834464176,0.928,0.836,3.309,1.099,0.877,0.392,0.0,0.0,0.0,0.457091392502,-0.401637276337,9.96512546182,-0.177133335556,-0.0301287970623,0.0248287840009,-0.428576767445,0.180100902915,-0.0665604099631,-0.00194147191031,-0.00421032463418,0.0240740546677
1555426875217787280,-0.0129612591118,0.00601685605943,0.390028566122,0.0102688110667,0.00290767022699,-0.0054381317736,0.933,0.836,3.434,1.099,0.877,0.391,0.0,0.0,0.0,-0.349857879393,0.123565946734,9.71553823113,-0.118082082665,-0.0110984918566,-0.000350767183814,-0.428351253271,0.180107459426,-0.0664462521672,0.00162499292403,-0.00441153344276,0.0247522493437
1555426875237739498,-0.0139382490888,0.00536064291373,0.389820128679,0.00824214391673,0.00484051998544,-0.00518826640596,0.933,0.836,3.434,1.089,0.881,0.389,1.0,1.0,0.0,0.210925513878,-0.082623907188,10.0427308774,-0.0342542374891,0.0509527256577,0.0263566748883,-0.428064674139,0.180235281587,-0.0662670582533,0.00203493545276,-0.00384785402847,0.0250961058632
1555426875257929285,-0.0137300156057,0.003794899676,0.389349192381,0.00887718872267,0.00357106651535,-0.00477961473966,0.933,0.836,3.434,1.089,0.881,0.389,1.0,0.0,0.0,-0.427056840397,0.487405222245,9.60060419083,-0.0114561450283,0.126334045428,0.00436960600553,-0.427885115147,0.180293112993,-0.0661010444164,0.0024233245501,-0.00284175553358,0.0251233828134
1555426875277874081,-0.0133321257308,0.00399174774066,0.38975083828,0.00799954554588,0.000834509069732,-0.00467107584093,0.933,0.836,3.434,1.089,0.881,0.389,0.0,1.0,0.0,-0.585929709636,1.26123886138,10.1351391041,-0.0763742336098,0.134963278249,-0.00345712301207,-0.427650660276,0.180390074849,-0.0658834278584,0.00483772859216,0.0021777402763,0.0261859948505
1555426875297732244,-0.0134214162827,0.00396728049964,0.389647752047,0.00595043034058,-0.00178062136393,-0.00456520426448,0.933,0.836,3.434,1.089,0.881,0.391,0.0,0.0,0.0,-0.0898310938384,-0.189382909611,9.58114173353,-0.167470937713,0.0370496474138,-0.00424343796867,-0.427616417408,0.180456474423,-0.0657695904374,0.00389723168915,0.000555162377492,0.0244089999668
1555426875317654588,-0.0129330763593,0.00363524211571,0.389608561993,0.00318734037238,-0.00358252825094,-0.00463943467838,0.929,0.836,3.365,1.089,0.881,0.394,2.0,0.0,0.0,-0.231773505472,0.595975408852,10.0692070699,-0.093209081868,-0.0575460259205,0.0140761452237,-0.427520245314,0.180464357138,-0.0655706524849,0.00764414581718,0.00081241832816,0.0250622796732
1555426875337991675,-0.013644117862,0.00429327273741,0.391396820545,-0.000478949983967,-0.00208554966771,-0.00425851005604,0.929,0.836,3.365,1.09,0.874,0.392,0.0,0.0,0.0,-0.0435662790667,0.311471676081,9.19321347356,-0.0182866309951,-0.0356479508307,0.00512093212287,-0.427307724953,0.180594190955,-0.0653209686279,0.00655431419991,-0.00294983689597,0.0231450883559
1555426875357817119,-0.0139993047342,0.00349522801116,0.391703784466,-0.000143341801111,-0.000370317263423,-0.00404621866645,0.929,0.836,3.365,1.09,0.874,0.392,0.0,0.0,0.0,-0.251206744965,1.13180584587,9.52017398536,0.0282478022232,0.00533206150037,0.0031002300376,-0.427144438028,0.180546194315,-0.0652010217309,0.00799395085898,-0.00194668009606,0.025377337902
1555426875377757407,-0.012047204189,0.00251321238466,0.390582561493,0.000995306458128,-0.00336114986443,-0.004010886269,0.929,0.836,3.365,1.09,0.874,0.388,0.0,-1.0,0.0,0.128111800589,-0.821922127381,9.82693587542,-0.0312463697272,0.0231704127841,-0.00845755099672,-0.426975160837,0.18059322238,-0.064958833158,0.00984348134974,-0.000505289381699,0.0274775250054
1555426875397898544,-0.0135172810405,0.0029134794604,0.390502661467,-0.000777120418947,-0.00159861341889,-0.0039952968938,0.929,0.836,3.365,1.09,0.874,0.388,0.0,0.0,0.0,-1.01048518427,0.909000105411,10.6082256281,-0.0784014484764,0.0138638829624,-0.0104129671443,-0.426664680243,0.180620193481,-0.0647817179561,0.0102566275856,-0.000160875907085,0.0273304998188
1555426875418020884,-0.0133129414171,0.00358744570985,0.39023193717,-0.00358522496161,-0.00256084967106,-0.00403101810237,0.929,0.836,3.365,1.09,0.874,0.388,0.0,0.0,0.0,0.931213823855,0.0149555159791,9.3029154253,-0.0254412070219,-0.0455080093223,0.029100563049,-0.426398515701,0.180633679032,-0.064772605896,0.0102983285212,-0.000921471348738,0.0255240300288
1555426875437761762,-0.0136885894462,0.00380953610875,0.390113115311,-0.00479415289444,-0.00140474257361,-0.00343879479415,0.929,0.833,3.485,1.096,0.875,0.39,0.0,0.0,0.0,-1.24080401212,0.611069484428,9.83686678648,0.072195459221,-0.0368325914626,-0.00280933690486,-0.425919115543,0.180615365505,-0.0645880699158,0.00802781557556,-0.00193164308302,0.0249911034617
1555426875457788413,-0.0129784410819,0.00324164610356,0.389983862638,-0.0031620213566,-0.00183505153923,-0.0033412567793,0.929,0.833,3.485,1.096,0.875,0.39,0.0,0.0,0.0,0.0136011660739,0.551700547747,9.87860655069,0.0804162713214,-0.0406462339824,-0.0112669232717,-0.425560534,0.180630847812,-0.0645007863641,0.00835333765968,-0.000589875687637,0.025486287873
1555426875477771274,-0.0133877452463,0.00243206229061,0.38963457942,-0.000411361315675,-0.000622949529301,-0.00331866932415,0.929,0.833,3.485,1.096,0.875,0.39,0.0,0.0,0.0,0.25446154274,-0.981978473067,9.50645349383,0.0667083237229,-0.025733896748,-0.00135744766746,-0.425052911043,0.180637404323,-0.0642652362585,0.0063265669617,-0.00268950964271,0.0229757794755
1555426875498213491,-0.0136513086036,0.00195633829571,0.389440625906,0.00148961496882,0.000523863226974,-0.00343498314484,0.929,0.833,3.485,1.096,0.875,0.389,0.0,0.0,0.0,-0.880399180949,0.743627398163,10.5803028345,-0.0798646141464,0.0431640780231,-0.0121385165995,-0.424603253603,0.180654287338,-0.0642492696643,0.00722589558738,0.00140288926657,0.0256014988137
1555426875517863837,-0.0131672117859,0.00237418734469,0.388741672039,-0.000279724956048,-0.000799779979697,-0.00359747108136,0.929,0.834,3.41,1.096,0.875,0.388,0.0,1.0,0.0,0.581813964173,0.0910602607951,9.56466720343,-0.0996954853414,-0.0211868009387,-0.0114430653704,-0.424193888903,0.180601030588,-0.0641087442636,0.00879359659667,0.00086952548125,0.025672587446
1555426875537696148,-0.0141521766782,0.00311411800794,0.388429224491,-0.00332275353136,0.000676958709286,-0.00375916423076,0.929,0.834,3.41,1.096,0.875,0.388,0.0,1.0,0.0,0.155193472244,-0.248198315967,9.87881237268,-0.101484630251,-0.0173584704613,-0.00785056196869,-0.423491239548,0.180661097169,-0.0639580637217,0.0144056011356,-0.000230111484915,0.0259276937932
1555426875557792144,-0.014096274972,0.00355662917718,0.38834348321,-0.00546598261294,0.000509027612186,-0.00382348789346,0.929,0.834,3.41,1.098,0.876,0.389,0.0,0.0,0.0,-0.263704053797,0.3052316189,10.3880276728,0.0898363797621,0.0139298679799,-0.00915990407833,-0.423052877188,0.180668354034,-0.0639732629061,0.0111374877489,0.00321565493132,0.0268666574253
1555426875577994130,-0.0140861719847,0.00193730858155,0.386130362749,-0.00199323394531,9.02859316921e-05,-0.00388582198758,0.929,0.834,3.41,1.098,0.876,0.382,0.0,0.0,0.0,0.214592869263,-0.569028661698,9.67376981556,0.105187672523,0.0664365855844,0.00576903161964,-0.422521203756,0.180629312992,-0.0638146474957,0.00798558432506,0.000499728519591,0.0261942995561
1555426875597673752,-0.0134470602497,0.00106902956031,0.385686963797,0.00107097384769,-0.00184206392326,-0.00365177277995,0.929,0.834,3.41,1.098,0.876,0.382,0.0,0.0,0.0,-0.481850988641,1.52120256096,9.54228464663,0.0206588146884,0.0465664910199,-0.0168991334299,-0.422117680311,0.180670425296,-0.0638114735484,0.00541020070801,-0.00108871687202,0.0253820986832
1555426875617796103,-0.0139428479597,0.00178960803896,0.385299146175,0.000492448719196,-0.00236390084615,-0.0039801805938,0.933,0.834,3.342,1.098,0.876,0.383,0.0,0.0,0.0,0.771358476207,-0.2957067056,10.0946775413,-0.0619174384023,0.00608038844058,0.00361949313493,-0.421602159739,0.18061003089,-0.0637001693249,0.00615297764035,0.000216777307969,0.0250089381817
1555426875637867896,-0.0139565169811,0.00237232306972,0.38409358263,-0.00159179166934,-0.00255168491192,-0.00411635473025,0.933,0.834,3.342,1.093,0.875,0.379,0.0,0.0,0.0,-0.579836289659,0.86559885487,9.85826174855,-0.0633251229367,-0.0252502562911,-0.00271218848135,-0.421368122101,0.180555433035,-0.0636008232832,0.00899329109825,0.00111728438656,0.0255129517195
1555426875657813130,-0.0142810652032,0.00295357592404,0.381930470467,-0.00387556517634,-0.00153581444192,-0.00424896714882,0.933,0.834,3.342,1.093,0.875,0.379,0.0,0.0,0.0,0.605444901511,-0.896181181446,9.92971238494,0.00415348528159,-0.0595344917932,-0.0020443507737,-0.421139091253,0.180573627353,-0.0635674074292,0.00886703040893,-0.000177075117543,0.025252110696
1555426875677746745,-0.0130423121154,0.00298378732987,0.382844626904,-0.00412637799475,-0.00195695734802,-0.00433467438262,0.933,0.834,3.342,1.093,0.875,0.379,0.0,0.0,0.0,-0.661425413266,0.889386424497,9.88595299244,0.130200247929,-0.00827580013515,-0.0128402220961,-0.420931279659,0.18049697578,-0.0634465143085,0.00488767192962,-0.00157733633437,0.0241291328548
1555426875697737212,-0.0130876861513,0.001785348868,0.382515907288,-0.000356366096396,-0.00138052770338,-0.00452138434143,0.933,0.834,3.342,1.093,0.875,0.388,-1.0,0.0,0.0,0.38837897066,-0.523093593344,10.5090662062,0.124221809144,-0.0520207822517,-0.0178223026173,-0.420895665884,0.18045681715,-0.0633727237582,0.00362760629387,-0.00155434622555,0.0239415252125
1555426875717842974,-0.0134622296318,0.00165260012727,0.384197026491,0.00233308255876,0.000141188271915,-0.00488667069459,0.933,0.834,3.342,1.093,0.875,0.388,-1.0,0.0,0.0,-0.355116974786,0.19838263331,9.65640533924,0.0549115978419,-0.0585571241567,-0.0372058043611,-0.420902758837,0.180477961898,-0.0633380040526,0.00377604448293,-0.00221395476524,0.0236953720118
